Time AX AY AZ GX GY GZ
0.014508833000007826 -0.238 -0.508 0.793 2.527 3.221 -0.725
0.026689791999999102 -0.236 -0.517 0.799 1.565 2.427 -0.55
0.03402870800000812 -0.233 -0.525 0.805 0.374 2.832 0.061
0.04651000000001204 -0.228 -0.536 0.798 -1.45 4.412 0.321
0.053626958000009495 -0.22 -0.551 0.804 -2.771 6.115 -0.351
0.06599291700000265 -0.231 -0.548 0.807 -3.115 8.786 -0.977
0.07797737500000324 -0.238 -0.552 0.822 -2.099 10.382 -0.672
0.08522175000000232 -0.237 -0.546 0.819 -0.634 9.237 -1.221
0.09758083300000919 -0.25 -0.525 0.816 0.191 7.023 -1.328
0.10471520800000178 -0.25 -0.519 0.797 0.71 5.794 -1.099
0.11715150000000563 -0.256 -0.514 0.795 0.626 6.481 -1.42
0.12391454200000851 -0.254 -0.512 0.783 -0.229 6.26 -0.992
0.13638775000001147 -0.253 -0.531 0.78 -0.962 6.168 0.313
0.1438781670000111 -0.255 -0.529 0.795 -1.115 5.489 0.84
0.1556971250000032 -0.253 -0.53 0.806 -0.84 3.718 0.71
0.16819216700000084 -0.246 -0.529 0.812 0.29 0.763 -0.412
0.17549487499999827 -0.254 -0.522 0.799 0.313 -0.405 -1.061
0.18745729200000483 -0.261 -0.519 0.786 -0.023 -0.382 -0.244
0.19470108300001243 -0.254 -0.518 0.794 -0.244 0.237 0.672
0.20715829200000258 -0.247 -0.529 0.801 -0.336 1.206 0.16
0.21437175000001218 -0.251 -0.532 0.797 -0.374 1.779 -0.168
0.2262531249999995 -0.254 -0.527 0.813 -0.328 1.87 -0.206
0.23340454200000238 -0.256 -0.521 0.811 -0.298 0.557 -0.107
0.24578912500000172 -0.249 -0.521 0.817 -0.634 -1.0 -0.137
0.2576939580000044 -0.239 -0.525 0.8 -0.748 -1.244 -0.206
0.2650007499999987 -0.237 -0.525 0.8 -1.198 0.458 -0.115
0.27726404199999877 -0.243 -0.523 0.794 -1.794 2.901 0.267
0.2845895000000098 -0.241 -0.521 0.796 -2.046 4.405 0.427
0.29700650000000905 -0.243 -0.525 0.802 -2.099 5.206 0.366
0.30411062500000696 -0.242 -0.525 0.811 -1.473 5.008 0.023
0.31670212500000616 -0.257 -0.523 0.805 -0.626 3.405 -0.611
0.32352229200000693 -0.271 -0.523 0.807 0.183 0.412 -0.481
0.33583470800000725 -0.26 -0.531 0.798 0.122 -1.977 -0.328
0.34779862500001 -0.246 -0.531 0.796 -0.313 -2.344 -0.244
0.3549940000000049 -0.236 -0.539 0.784 -1.137 -0.015 -0.313
0.36713641700001176 -0.24 -0.538 0.799 -1.756 3.13 -0.573
0.3745730420000086 -0.244 -0.528 0.799 -2.298 5.13 0.282
0.3865368330000081 -0.258 -0.526 0.806 -2.198 4.366 0.763
0.39416937500000415 -0.26 -0.527 0.81 -2.237 2.374 0.504
0.40627304200000935 -0.246 -0.532 0.802 -1.198 0.885 -0.099
0.4181258750000012 -0.244 -0.532 0.794 0.031 -0.214 -0.527
0.42550920800000824 -0.244 -0.521 0.784 0.718 -0.198 -0.389
0.437811042000007 -0.248 -0.521 0.797 0.511 -0.031 0.076
0.4450551250000103 -0.245 -0.513 0.806 0.405 -0.435 -0.267
0.4570237500000047 -0.24 -0.517 0.809 -0.527 0.641 -0.473
0.4643562080000123 -0.241 -0.518 0.795 -0.603 3.26 -0.313
0.4766678330000076 -0.249 -0.532 0.805 -1.336 5.099 0.099
0.4838792920000117 -0.255 -0.541 0.802 -1.718 5.649 -0.229
0.495905625000006 -0.26 -0.552 0.805 -1.756 4.702 -0.672
0.5081654580000077 -0.271 -0.538 0.808 -1.71 3.71 -0.672
0.5154355829999986 -0.272 -0.535 0.808 -0.992 2.191 -0.176
0.5276333330000114 -0.262 -0.532 0.786 -0.351 0.939 -0.71
0.5349063330000092 -0.256 -0.518 0.791 -0.168 0.618 -0.519
0.5468620000000044 -0.259 -0.514 0.782 -0.176 0.634 -0.557
0.5538952920000071 -0.244 -0.512 0.799 -0.405 0.084 -0.405
0.5665188330000035 -0.249 -0.51 0.801 -0.542 -0.321 -0.664
0.5726558750000095 -0.255 -0.519 0.796 -1.015 0.092 -0.511
0.585671583000007 -0.257 -0.524 0.81 -0.817 0.412 -0.298
0.597759833000012 -0.254 -0.537 0.804 -1.137 -0.198 0.015
0.6051844580000107 -0.26 -0.532 0.794 -1.473 -0.649 -0.206
0.6172862080000101 -0.262 -0.524 0.804 -1.939 -0.595 0.214
0.6244941249999982 -0.254 -0.529 0.823 -1.244 -0.611 0.26
0.6363200830000011 -0.238 -0.532 0.817 -0.16 -0.565 -0.603
0.6433611249999984 -0.246 -0.52 0.793 0.099 0.42 -1.198
0.6561710420000111 -0.242 -0.513 0.791 -0.221 1.328 -0.435
0.6684183750000017 -0.239 -0.523 0.793 -0.55 2.313 -0.153
0.6753974580000062 -0.241 -0.528 0.802 -0.847 2.885 -0.565
0.6872587500000122 -0.254 -0.534 0.794 -0.725 3.885 -0.71
0.6943554170000112 -0.26 -0.529 0.807 -1.282 3.695 -0.626
0.7069468330000035 -0.264 -0.528 0.805 -1.16 2.435 0.053
0.7137735830000054 -0.26 -0.54 0.8 -0.649 1.573 -0.015
0.7261042500000059 -0.259 -0.541 0.784 -0.107 1.183 -0.924
0.7322715000000102 -0.268 -0.537 0.776 -0.084 2.214 -0.901
0.7457339170000097 -0.275 -0.524 0.794 -0.321 2.389 0.023
0.7579765830000014 -0.274 -0.527 0.793 -0.618 0.878 0.214
0.765111417 -0.263 -0.525 0.801 -0.374 -0.725 -0.008
0.7772990420000099 -0.269 -0.528 0.808 0.061 -2.534 -0.603
0.7843358330000001 -0.261 -0.521 0.796 -0.107 -4.122 -0.672
0.7966146250000037 -0.248 -0.514 0.802 -0.771 -5.038 0.244
0.8038826670000105 -0.234 -0.518 0.798 -1.206 -3.908 0.443
0.8158370830000052 -0.232 -0.524 0.81 -1.29 -0.87 0.008
0.8279572500000114 -0.239 -0.53 0.804 -1.489 2.237 -0.244
0.8352327919999993 -0.251 -0.531 0.803 -1.626 3.626 -0.42
0.847536667 -0.257 -0.537 0.806 -1.183 3.534 -0.122
0.854797750000003 -0.254 -0.539 0.801 -1.0 2.145 -0.649
0.8668211670000119 -0.26 -0.534 0.806 -0.046 1.611 -0.634
0.874120167000001 -0.265 -0.525 0.793 -0.168 0.565 -0.16
0.8861752080000116 -0.253 -0.518 0.79 -0.496 -0.908 0.405
0.8922409580000021 -0.244 -0.518 0.788 -0.962 -1.275 0.053
0.9057579170000025 -0.247 -0.519 0.787 -1.351 -0.595 0.023
0.9177151670000114 -0.252 -0.522 0.782 -1.221 1.237 -0.397
0.9249916670000005 -0.256 -0.526 0.803 -1.061 1.878 -0.275
0.9374223750000112 -0.257 -0.529 0.808 -0.435 0.893 -0.145
0.9455114170000058 -0.25 -0.532 0.812 0.412 -0.366 -0.611
0.9567090000000036 -0.254 -0.513 0.8 0.931 -1.26 -1.275
0.963890125000006 -0.257 -0.508 0.795 0.626 -0.252 -0.779
0.9759335829999998 -0.251 -0.509 0.79 0.328 1.443 -0.458
0.9881918749999983 -0.249 -0.525 0.789 -0.641 2.328 -0.466
0.9954286250000024 -0.259 -0.54 0.798 -1.046 3.565 -0.695
1.0074899580000078 -0.277 -0.541 0.803 -1.359 3.542 -0.466
1.014714000000012 -0.276 -0.547 0.801 -1.763 2.328 0.229
1.0271400419999992 -0.273 -0.545 0.818 -1.359 -0.687 0.405
1.0345608330000005 -0.254 -0.54 0.808 -0.611 -2.573 0.053
1.0463687920000098 -0.249 -0.522 0.808 -0.023 -2.565 0.55
1.0535765000000055 -0.228 -0.524 0.791 0.344 -1.176 0.13
1.065850917000006 -0.225 -0.512 0.79 0.649 0.229 -0.466
1.078150958000009 -0.229 -0.506 0.79 0.229 2.183 -0.763
1.0855896670000078 -0.235 -0.515 0.78 -0.618 4.305 -1.305
1.0974721250000101 -0.26 -0.527 0.8 -1.794 6.412 -0.992
1.1048687920000049 -0.279 -0.542 0.806 -2.252 7.069 -0.626
1.1170670830000091 -0.296 -0.542 0.813 -2.168 5.427 0.061
1.1241005830000006 -0.287 -0.542 0.815 -1.611 1.397 0.374
1.1363807080000043 -0.283 -0.537 0.799 -1.137 -2.137 0.412
1.1434195830000107 -0.26 -0.532 0.791 -0.924 -2.893 0.618
1.1556859169999996 -0.236 -0.538 0.792 -0.405 -2.374 -0.153
1.1679218750000047 -0.236 -0.528 0.789 0.206 -1.053 -0.733
1.1749719580000004 -0.243 -0.51 0.778 -0.168 0.137 -0.13
1.1873098330000005 -0.238 -0.504 0.793 -0.84 0.908 0.076
1.194500167000001 -0.231 -0.516 0.795 -0.878 1.458 -0.298
1.2067447080000022 -0.247 -0.522 0.797 -0.786 2.275 -0.664
1.213714708000012 -0.262 -0.527 0.801 -0.779 3.389 -0.687
1.2258907920000013 -0.27 -0.53 0.806 -1.145 2.931 -0.397
1.2381227919999986 -0.266 -0.531 0.806 -0.985 1.725 -0.153
1.2453697920000053 -0.264 -0.524 0.802 -1.176 0.313 -0.115
1.257707042000007 -0.264 -0.525 0.789 -1.42 1.008 -0.191
1.2650107500000018 -0.266 -0.533 0.794 -1.809 2.496 -0.229
1.2771078330000023 -0.258 -0.541 0.805 -1.649 2.359 -0.344
1.2844077499999997 -0.264 -0.539 0.808 -1.595 1.534 -0.244
1.2966414580000105 -0.257 -0.527 0.809 -0.534 0.748 0.115
1.303869583000008 -0.245 -0.521 0.801 -0.061 0.733 -0.26
1.3158230000000088 -0.247 -0.52 0.783 -0.183 1.29 -0.763
1.3279405420000074 -0.256 -0.513 0.782 -0.496 2.13 -0.771
1.3352214580000066 -0.261 -0.518 0.786 -0.863 2.107 -0.725
1.347481583000004 -0.262 -0.529 0.788 -1.023 1.71 -0.252
1.3548048749999992 -0.259 -0.537 0.788 -1.153 2.229 -0.198
1.3668954170000092 -0.265 -0.546 0.794 -1.321 2.656 -0.435
1.3741255830000085 -0.287 -0.54 0.804 -1.504 1.55 -0.13
1.386036666999999 -0.283 -0.532 0.815 -1.198 -0.542 0.26
1.392319458000003 -0.258 -0.543 0.806 -0.595 -3.176 0.374
1.4055201250000096 -0.253 -0.535 0.788 -0.092 -3.336 -0.298
1.4175459580000052 -0.244 -0.526 0.793 -0.145 -1.351 -0.115
1.4248061669999998 -0.241 -0.52 0.799 -0.588 1.031 -0.298
1.4370622080000004 -0.248 -0.512 0.804 -0.916 1.298 -0.351
1.444342000000006 -0.251 -0.515 0.814 -0.702 1.718 -0.527
1.4563612500000005 -0.256 -0.523 0.801 -0.931 1.321 -0.542
1.463671583000007 -0.258 -0.526 0.801 -1.16 1.947 -0.656
1.4756169170000106 -0.258 -0.537 0.799 -1.13 2.046 -0.42
1.488037792 -0.267 -0.532 0.801 -0.977 2.282 -0.466
1.4952795829999985 -0.276 -0.531 0.797 -1.389 2.305 -0.252
1.5072237080000122 -0.277 -0.532 0.802 -1.382 1.275 0.191
1.5145414580000107 -0.267 -0.529 0.8 -1.344 -0.832 0.015
1.5268806670000004 -0.263 -0.523 0.795 -0.679 -1.504 0.183
1.5341085419999985 -0.253 -0.518 0.805 -0.168 -1.382 0.145
1.5461430420000113 -0.236 -0.522 0.791 0.115 -0.542 -0.908
1.551985000000002 -0.246 -0.524 0.786 0.542 2.038 -1.42
1.565788458 -0.262 -0.519 0.79 -0.031 4.595 -1.489
1.5776952920000014 -0.28 -0.527 0.805 -0.573 4.756 -0.603
1.5850247919999987 -0.285 -0.536 0.796 -1.214 2.962 -0.137
1.5972448750000012 -0.283 -0.54 0.81 -1.382 1.008 0.053
1.6045216670000002 -0.271 -0.546 0.808 -1.458 0.565 -0.084
1.6165234170000105 -0.257 -0.541 0.802 -0.985 0.237 0.115
1.6238548750000064 -0.253 -0.534 0.796 -0.321 0.092 -0.053
1.636103833000007 -0.243 -0.519 0.795 0.344 -0.046 -0.244
1.648126542 -0.247 -0.516 0.797 0.466 0.397 -0.588
1.655734625000008 -0.245 -0.515 0.786 0.42 0.985 -0.634
1.6676576670000003 -0.253 -0.519 0.79 0.137 1.145 -0.305
1.67497104200001 -0.254 -0.522 0.794 -0.45 1.679 -0.237
1.6873153750000114 -0.265 -0.535 0.784 -0.802 2.168 -0.008
1.6944105000000036 -0.275 -0.533 0.795 -0.939 2.168 0.366
1.7067276670000098 -0.277 -0.541 0.807 -0.679 1.0 0.557
1.713789417000001 -0.274 -0.54 0.792 -0.824 -0.611 1.137
1.7258995420000076 -0.262 -0.537 0.802 -0.893 -2.069 0.58
1.7381159170000018 -0.25 -0.522 0.791 -1.031 -1.573 0.328
1.745144792000005 -0.255 -0.513 0.795 -1.015 -0.427 0.328
1.757631625000002 -0.247 -0.512 0.801 -0.573 0.397 0.244
1.7646448330000055 -0.249 -0.509 0.792 -0.366 1.366 -0.313
1.7768851250000068 -0.258 -0.512 0.793 -0.519 2.916 -0.107
1.7838838330000044 -0.266 -0.523 0.813 -0.649 3.397 -0.252
1.796325875000008 -0.27 -0.53 0.802 -0.847 2.84 -0.015
1.8033437079999999 -0.266 -0.536 0.806 -0.779 1.931 -0.122
1.8155138330000113 -0.275 -0.531 0.79 -0.87 1.87 0.229
1.8280136250000112 -0.265 -0.532 0.784 -1.336 2.206 0.412
1.835149708000003 -0.26 -0.538 0.791 -1.359 2.397 0.008
1.847546125000008 -0.275 -0.535 0.791 -1.206 1.366 -0.275
1.8545030420000046 -0.272 -0.526 0.796 -0.977 0.534 0.168
1.8672055420000078 -0.252 -0.525 0.792 -0.008 0.29 0.298
1.874071458000003 -0.253 -0.53 0.804 0.221 0.275 -0.542
1.88664725000001 -0.255 -0.528 0.788 0.252 1.008 -1.069
1.8936193330000037 -0.262 -0.526 0.784 -0.389 2.313 -1.038
1.9058680000000123 -0.273 -0.521 0.789 -0.878 3.351 -0.695
1.9180935000000119 -0.288 -0.528 0.802 -1.191 3.038 -0.176
1.925385250000005 -0.281 -0.536 0.797 -1.282 1.267 0.015
1.937642000000011 -0.281 -0.539 0.803 -1.565 -0.237 0.344
1.9446398330000108 -0.274 -0.545 0.792 -1.435 -0.992 0.328
1.9569506250000046 -0.257 -0.546 0.791 -1.084 -1.038 0.107
1.9638756670000106 -0.257 -0.541 0.791 -0.496 -0.496 0.107
1.9761251670000064 -0.247 -0.529 0.8 -0.198 -0.931 -0.076
1.9832034169999986 -0.234 -0.52 0.8 -0.176 -0.878 -0.809
1.9956305830000076 -0.24 -0.508 0.791 0.031 0.786 -1.214
2.008013875000003 -0.252 -0.507 0.793 -0.473 3.053 -0.809
2.0150669169999986 -0.265 -0.528 0.788 -0.588 4.534 -0.573
2.027140375000002 -0.273 -0.538 0.808 -0.992 4.489 -0.534
2.034153708000005 -0.285 -0.536 0.807 -0.992 3.305 -0.153
2.046666000000002 -0.288 -0.539 0.799 -1.031 0.969 0.046
2.053818583000009 -0.289 -0.545 0.797 -0.664 -1.183 0.198
2.0663231670000073 -0.269 -0.543 0.795 -0.786 -2.397 0.206
2.071960125000004 -0.267 -0.54 0.775 -1.305 -1.878 0.237
2.085375667000008 -0.247 -0.529 0.789 -1.641 -0.832 0.489
2.0976048330000054 -0.24 -0.528 0.789 -0.809 0.496 -0.305
2.1045407500000124 -0.246 -0.519 0.799 0.0 1.573 -0.885
2.1170121669999986 -0.26 -0.519 0.803 0.206 1.489 -1.046
2.123937500000011 -0.256 -0.514 0.795 -0.084 0.466 -1.145
2.1362651250000084 -0.255 -0.524 0.799 -0.008 0.901 -0.771
2.1432189580000056 -0.268 -0.531 0.796 -0.55 3.649 -1.366
2.1557821670000124 -0.281 -0.532 0.789 -1.053 6.389 -0.84
2.168071542000007 -0.288 -0.537 0.802 -1.702 6.015 -0.137
2.174989750000009 -0.284 -0.538 0.802 -1.649 2.885 0.176
2.18754662500001 -0.288 -0.537 0.809 -1.16 0.496 -0.229
2.194240167000004 -0.284 -0.529 0.799 -0.824 -1.176 -0.496
2.2065638750000005 -0.26 -0.524 0.791 -0.71 -2.153 -0.519
2.2134931249999994 -0.25 -0.529 0.791 -0.679 -2.076 -0.603
2.225768500000001 -0.251 -0.517 0.792 -0.55 -0.412 -0.702
2.2380522500000097 -0.249 -0.521 0.79 -0.275 1.473 -0.84
2.245032875000007 -0.256 -0.528 0.796 -0.481 2.466 -1.115
2.257554583000001 -0.268 -0.532 0.783 -0.824 3.45 -0.84
2.2644872080000056 -0.279 -0.54 0.801 -1.252 3.618 -0.351
2.2767749580000043 -0.277 -0.541 0.801 -1.489 2.237 0.053
2.2837307500000037 -0.28 -0.539 0.8 -1.214 0.435 -0.092
2.296017333000009 -0.282 -0.532 0.79 -1.26 -0.45 -0.023
2.303056500000011 -0.269 -0.535 0.793 -0.924 -0.878 0.229
2.3152615830000087 -0.253 -0.525 0.782 -0.45 -1.679 -0.046
2.3275803330000002 -0.254 -0.519 0.781 -0.359 -1.321 -0.573
2.33449262500001 -0.261 -0.514 0.781 -0.336 0.076 -0.573
2.3470687920000017 -0.261 -0.526 0.791 -0.244 0.855 -0.55
2.353938833000001 -0.257 -0.537 0.786 -0.389 0.824 -1.015
2.3662450420000027 -0.283 -0.537 0.792 -0.893 1.756 -0.763
2.373201750000007 -0.28 -0.535 0.798 -1.359 2.427 -0.244
2.3855226670000036 -0.271 -0.535 0.796 -1.168 2.244 -0.191
2.3980662499999994 -0.276 -0.534 0.795 -1.237 2.244 -0.137
2.404978583000002 -0.279 -0.531 0.789 -1.008 1.947 0.099
2.4172978330000063 -0.28 -0.531 0.79 -0.84 0.382 -0.046
2.4242048330000046 -0.275 -0.53 0.783 -0.427 -1.29 0.198
2.4365183330000093 -0.262 -0.519 0.783 -0.282 -2.519 -0.053
2.4434686670000048 -0.263 -0.523 0.768 -0.618 -1.71 -0.618
2.4557519170000006 -0.266 -0.522 0.782 -0.771 0.656 -0.565
2.4615236250000123 -0.282 -0.533 0.802 -0.702 1.969 -0.275
2.4752475830000122 -0.283 -0.539 0.801 -0.733 0.924 -0.061
2.487531708000006 -0.279 -0.536 0.803 -0.489 -1.687 -0.038
2.49425875 -0.267 -0.539 0.799 -0.26 -3.397 -0.489
