Time AX AY AZ GX GY GZ
0.012908417000005556 -0.545 -0.203 0.713 -1.084 -9.084 -1.527
0.02489129199999951 -0.546 -0.214 0.714 -4.763 -4.649 -2.115
0.03181091700000138 -0.563 -0.241 0.754 -5.87 -1.962 -2.282
0.04378220800000321 -0.582 -0.245 0.808 -3.771 -2.473 -1.649
0.050781374999999684 -0.572 -0.253 0.813 -0.664 -5.504 -2.038
0.06306720799999965 -0.576 -0.246 0.796 1.748 -5.069 -1.74
0.07521970799999877 -0.587 -0.231 0.792 2.786 -1.489 -0.267
0.08234516699999972 -0.581 -0.224 0.787 3.313 1.336 -0.031
0.09462570800000236 -0.571 -0.204 0.79 2.489 -0.115 0.267
0.10191779200000184 -0.518 -0.201 0.782 1.076 -2.405 -1.466
0.11395783300000062 -0.509 -0.179 0.745 -1.74 1.718 -3.313
0.12094533300000165 -0.52 -0.193 0.703 -6.229 12.176 -4.267
0.13286587500000024 -0.561 -0.204 0.746 -9.969 20.763 -5.107
0.14490279200000344 -0.61 -0.232 0.81 -10.122 19.779 -5.481
0.1518135419999993 -0.655 -0.259 0.844 -6.153 11.985 -5.534
0.1639104580000037 -0.694 -0.271 0.875 -1.214 0.26 -3.405
0.17122458300000432 -0.67 -0.268 0.879 4.298 -11.779 -1.053
0.18322549999999893 -0.65 -0.24 0.82 8.351 -17.573 1.954
0.19529641700000155 -0.606 -0.22 0.797 8.901 -17.771 4.45
0.20234495800000474 -0.514 -0.21 0.775 8.008 -17.542 2.817
0.21431087500000245 -0.47 -0.188 0.726 4.901 -13.336 0.435
0.22169250000000318 -0.493 -0.169 0.661 -1.267 3.427 -0.824
0.23391395800000225 -0.522 -0.197 0.709 -8.023 21.595 -2.42
0.2454366669999999 -0.598 -0.226 0.797 -9.092 26.267 -2.817
0.25278233299999897 -0.669 -0.256 0.88 -5.771 15.244 -2.282
0.26480995800000073 -0.68 -0.279 0.906 0.366 -5.656 -1.779
0.27182066700000007 -0.661 -0.25 0.872 6.756 -23.504 -1.359
0.28388587500000284 -0.621 -0.218 0.812 10.0 -28.595 1.252
0.2910050830000017 -0.606 -0.198 0.76 9.595 -21.931 4.405
0.3029660420000013 -0.627 -0.196 0.779 7.328 -17.061 7.366
0.31509358299999946 -0.64 -0.22 0.831 6.832 -22.206 8.588
0.3224134169999999 -0.651 -0.248 0.86 9.71 -33.695 8.924
0.3342927919999994 -0.639 -0.254 0.883 14.756 -49.183 9.679
0.34124450000000195 -0.618 -0.246 0.847 19.084 -60.359 11.153
0.353056708000004 -0.633 -0.237 0.83 21.962 -62.519 13.687
0.36498358300000433 -0.648 -0.225 0.836 24.634 -63.718 19.099
0.3721072920000026 -0.663 -0.229 0.887 28.786 -70.183 24.374
0.3840713750000049 -0.687 -0.228 0.918 34.55 -84.351 28.481
0.3908293750000027 -0.706 -0.229 0.93 40.389 -104.267 33.16
0.40286741700000306 -0.702 -0.227 0.924 45.244 -126.947 38.588
0.4145670420000016 -0.664 -0.201 0.901 48.756 -149.58 43.58
0.4217857080000016 -0.587 -0.19 0.876 51.71 -168.84 48.382
0.43343429200000116 -0.478 -0.183 0.844 53.962 -180.687 50.252
0.44524050000000415 -0.368 -0.164 0.813 54.168 -182.198 48.618
0.4523768749999988 -0.279 -0.129 0.805 52.427 -176.496 45.771
0.46410716700000165 -0.226 -0.087 0.784 48.931 -164.702 42.756
0.4709291670000013 -0.211 -0.055 0.776 42.496 -147.771 41.458
0.4827844580000047 -0.193 -0.061 0.798 33.748 -132.099 39.244
0.49455779200000194 -0.144 -0.067 0.857 26.939 -122.313 35.87
0.501712916999999 -0.118 -0.065 0.857 22.374 -113.29 31.412
0.513416417000002 -0.137 -0.031 0.874 18.725 -101.878 30.122
0.5252450000000053 -0.219 -0.032 0.884 15.443 -89.336 33.229
0.5322837500000048 -0.239 -0.082 0.979 15.191 -89.695 34.015
0.5441999170000003 -0.241 -0.122 1.034 19.168 -107.214 31.924
0.5513067080000056 -0.229 -0.092 1.044 24.221 -129.221 30.252
0.5630380420000023 -0.226 -0.045 0.969 24.634 -139.985 32.328
0.5747779580000056 -0.159 -0.033 0.94 21.718 -140.557 33.664
0.5818614169999989 -0.112 -0.003 0.917 17.931 -139.855 35.214
0.5937373750000035 -0.125 0.003 0.894 14.45 -135.931 38.565
0.6055529580000041 -0.096 -0.006 0.93 11.412 -136.985 41.901
0.6124728330000053 -0.057 -0.047 0.951 10.023 -142.87 42.061
0.6243916250000012 -0.014 -0.052 0.985 10.374 -155.137 40.336
0.6314884579999998 0.105 -0.072 1.011 11.817 -165.45 35.099
0.643196875000001 0.175 -0.02 0.966 12.397 -164.679 32.313
0.6552097920000008 0.191 -0.006 0.897 9.977 -142.641 30.664
0.6623832080000014 0.137 0.003 0.924 6.023 -124.107 31.817
0.6743500830000002 0.062 -0.018 0.983 3.191 -121.115 34.84
0.6814812500000045 0.057 -0.057 1.037 4.282 -136.351 37.863
0.6935250000000011 0.131 -0.072 1.021 6.855 -156.71 37.58
0.7055067080000015 0.22 -0.037 0.979 7.405 -166.977 36.099
0.7124615000000034 0.283 -0.031 0.912 7.061 -163.611 33.076
0.724488583000003 0.307 -0.044 0.882 5.244 -150.679 31.412
0.7313302080000028 0.282 -0.029 0.881 3.748 -141.779 32.641
0.743659208000004 0.282 -0.015 0.899 5.473 -139.847 36.504
0.7556333330000058 0.276 -0.046 0.935 6.786 -142.244 39.618
0.7628253750000056 0.302 -0.059 0.97 9.084 -153.221 39.298
0.7747146250000014 0.353 -0.062 0.97 12.908 -169.336 38.221
0.7817190419999989 0.474 -0.058 0.978 15.756 -182.336 29.092
0.7934072920000048 0.478 -0.045 0.846 16.87 -180.969 23.969
0.8055264580000028 0.471 -0.032 0.774 15.687 -166.55 27.305
0.8122393750000043 0.406 -0.027 0.749 13.099 -148.267 34.863
0.8241516670000024 0.291 -0.041 0.752 9.786 -139.298 44.519
0.8312147500000009 0.17 -0.097 0.872 8.481 -158.992 52.496
0.8432640830000011 0.222 -0.175 0.899 15.183 -209.397 57.847
0.8552165830000007 0.481 -0.172 0.897 27.275 -250.137 51.885
0.8620033750000005 0.602 -0.094 0.696 38.885 -250.137 48.519
0.8742023329999995 0.782 -0.024 0.481 41.397 -250.137 48.313
0.8809984170000007 0.866 0.027 0.323 31.145 -250.137 48.847
0.8932450420000038 0.823 0.079 0.256 14.763 -209.366 51.817
0.9052079170000056 0.675 0.07 0.308 -7.901 -175.786 62.489
0.9120515830000002 0.735 -0.066 0.494 -24.809 -182.183 59.145
0.9240017920000057 0.828 -0.095 0.621 -28.435 -216.076 43.977
0.9308026250000054 0.886 -0.152 0.56 -26.321 -245.038 29.809
0.9427028330000056 0.898 -0.141 0.38 -23.481 -241.626 20.115
0.9546858750000027 1.018 -0.151 0.265 -17.969 -210.107 20.191
0.9611204170000036 0.871 -0.053 0.151 -20.16 -181.328 34.702
0.9732229580000009 0.963 -0.119 -0.04 -23.779 -122.0 37.16
0.985470792000001 0.876 0.075 0.208 -38.42 -69.771 35.45
0.9922110830000008 1.028 -0.123 0.138 -49.344 -51.275 31.84
1.0041656249999988 0.912 -0.075 0.233 -52.366 -48.168 18.603
1.0108398330000057 0.881 -0.159 0.511 -65.725 -74.802 14.099
1.0228400420000057 1.024 -0.011 -0.206 -86.458 -56.107 8.382
1.035221208000003 0.89 -0.237 0.665 -62.947 -121.282 2.573
1.041995958000001 0.635 -0.295 0.439 -66.374 -165.389 3.206
1.0539678330000015 0.885 -0.268 0.434 -54.618 -204.267 1.855
1.0604305419999989 0.974 -0.167 -0.139 -50.756 -201.069 -0.481
1.072702083000003 1.064 -0.142 0.116 -46.771 -180.504 4.145
1.0845965829999997 0.998 -0.118 0.062 -54.863 -171.191 4.893
1.091321917000002 1.051 -0.127 0.038 -68.496 -169.214 0.359
1.1036575830000004 1.023 -0.138 -0.105 -86.771 -164.092 -5.802
1.1152153750000053 0.981 -0.156 -0.123 -109.847 -157.023 -21.038
1.1217819579999997 0.982 -0.07 0.01 -125.809 -167.084 -21.802
1.1335227920000008 1.156 -0.298 0.008 -127.115 -181.328 -33.382
1.1452555830000009 1.077 -0.225 0.034 -133.443 -183.954 -36.198
1.1518474579999989 1.248 -0.196 -0.02 -121.725 -162.282 -36.412
1.1637122079999997 1.103 -0.187 -0.105 -115.664 -140.382 -33.45
1.1751988749999995 1.074 -0.159 -0.015 -106.183 -124.618 -27.924
1.181642250000003 0.957 -0.146 -0.069 -94.786 -114.313 -16.985
1.1934723330000025 1.003 -0.249 -0.008 -85.015 -114.557 -10.832
1.2055486670000022 1.005 -0.249 -0.114 -79.802 -112.015 -8.176
1.2119901670000033 1.026 -0.211 -0.142 -76.382 -109.282 -9.786
1.2240697080000018 1.052 -0.141 -0.131 -73.206 -114.198 -11.16
1.2305750000000018 1.031 -0.06 -0.1 -72.786 -126.511 -10.641
1.2423818330000032 1.165 -0.106 -0.177 -69.275 -130.137 -11.443
1.254346292000001 1.159 -0.131 -0.259 -56.313 -111.336 -8.534
1.2608046670000022 1.071 -0.027 -0.351 -43.985 -75.924 -0.679
1.2732100830000022 1.091 -0.075 -0.404 -37.618 -42.191 3.962
1.2850940830000042 1.061 -0.118 -0.376 -33.252 -26.031 1.183
1.292006458000003 0.967 -0.125 -0.329 -34.336 -34.145 -0.191
1.3038963750000008 1.028 -0.159 -0.293 -41.634 -44.489 -1.099
1.3111214170000025 1.054 -0.123 -0.321 -43.855 -50.786 1.0
1.3226414579999997 1.084 -0.071 -0.281 -40.916 -52.679 3.527
1.3346018330000007 1.126 -0.029 -0.284 -32.878 -44.962 9.252
1.3418094170000003 1.057 -0.032 -0.397 -19.344 -12.435 9.557
1.3534339170000038 1.064 -0.128 -0.335 -8.511 14.206 6.779
1.3610111250000045 0.977 -0.207 -0.233 4.893 21.221 6.023
1.3730155420000045 0.914 -0.198 -0.219 12.885 12.473 8.0
1.3850338330000014 0.933 -0.111 -0.346 13.069 -1.985 10.992
1.392212458000003 0.934 -0.033 -0.448 6.076 -8.756 16.977
1.4041064580000011 1.072 0.018 -0.453 -2.206 -16.931 13.626
1.4111479580000008 1.068 0.039 -0.536 -11.893 -14.099 10.336
1.4233241250000006 1.116 -0.012 -0.486 -20.366 -4.893 4.626
1.4354570830000029 1.136 -0.099 -0.363 -22.779 1.244 -1.13
1.4424555420000047 1.085 -0.131 -0.305 -17.466 9.344 -0.733
1.4545642080000007 1.018 -0.125 -0.302 -7.71 21.893 3.321
1.4618773750000003 0.979 -0.13 -0.267 3.992 32.42 7.015
1.4739347080000016 0.94 -0.1 -0.28 14.313 31.504 10.847
1.485584958000004 0.829 -0.053 -0.429 11.397 27.496 14.321
1.4928700829999997 0.945 -0.066 -0.379 -2.672 2.313 9.092
1.5048656250000008 1.039 -0.101 -0.376 -14.237 -18.595 -1.794
1.5117685000000023 1.05 -0.123 -0.376 -21.183 -25.611 -3.359
1.5236038330000028 1.079 -0.123 -0.399 -23.16 -9.649 -1.061
1.535527167000005 1.018 -0.132 -0.346 -16.534 19.351 5.45
1.5430521250000027 0.968 -0.151 -0.288 -5.313 45.962 9.542
1.5548412079999991 0.894 -0.129 -0.312 10.053 62.847 13.115
1.5621002920000038 0.778 -0.086 -0.258 13.504 50.252 13.565
1.5740482080000007 0.878 -0.12 -0.201 9.466 9.13 9.931
1.5814021250000039 0.951 -0.155 -0.264 2.351 -27.305 0.038
1.5930963750000018 0.993 -0.15 -0.361 -3.687 -37.16 -0.473
1.6050582080000027 0.997 -0.07 -0.464 -8.42 -19.176 1.939
1.612407625000003 1.026 -0.06 -0.398 -11.71 1.962 4.16
1.624108833000001 1.0 -0.043 -0.364 -10.282 18.992 8.275
1.6315015420000023 0.96 -0.064 -0.353 -8.763 29.519 11.122
1.6434904580000023 0.937 -0.123 -0.269 -6.206 33.42 8.672
1.6554861669999994 0.929 -0.195 -0.204 -2.206 26.779 6.847
1.6627754169999989 0.943 -0.222 -0.171 3.267 10.634 4.939
1.6748025830000017 0.947 -0.19 -0.243 5.069 -2.84 2.061
1.6820907920000039 0.971 -0.116 -0.294 4.534 -9.214 3.313
1.6940872079999991 0.995 -0.064 -0.365 0.885 -8.939 5.511
1.7014070419999996 1.013 -0.061 -0.41 -5.588 0.183 7.756
1.7134220420000048 1.017 -0.068 -0.389 -8.244 15.84 9.313
1.7254479580000037 0.985 -0.109 -0.318 -8.931 27.489 10.504
1.732751708000002 0.976 -0.189 -0.242 -6.779 33.374 8.069
1.7448070830000049 0.96 -0.213 -0.184 0.069 28.267 6.305
1.752036750000002 0.921 -0.179 -0.195 6.42 15.618 5.626
1.7643184580000053 0.926 -0.136 -0.245 9.168 3.031 4.443
1.7717102080000018 0.949 -0.085 -0.295 5.634 -6.832 6.305
1.7836551669999992 1.004 -0.083 -0.344 -0.496 -9.45 7.748
1.7896026250000006 1.029 -0.104 -0.375 -8.122 -0.969 8.725
1.8028420000000054 1.048 -0.141 -0.356 -11.779 17.008 9.397
1.8147519580000022 1.014 -0.159 -0.289 -8.634 31.42 7.916
1.822051542000004 0.941 -0.166 -0.242 -2.053 38.519 5.176
1.834161250000001 0.922 -0.153 -0.175 3.229 25.099 2.366
1.8414701250000007 0.944 -0.135 -0.166 7.359 -0.405 1.076
1.8534624999999991 0.966 -0.123 -0.25 5.069 -14.557 2.702
1.8654616670000053 0.971 -0.135 -0.348 -0.137 -8.443 5.023
1.8728103330000039 0.998 -0.147 -0.343 -4.695 7.389 5.366
1.8847642500000035 0.994 -0.144 -0.27 -3.87 15.878 6.847
1.8920572080000042 0.985 -0.116 -0.233 1.229 18.496 7.985
1.9040749999999989 0.99 -0.111 -0.254 4.771 12.58 5.427
1.9116422499999999 0.96 -0.144 -0.262 4.687 5.008 1.427
1.9237244580000024 0.958 -0.168 -0.249 1.969 -5.817 -1.786
1.9354771250000056 0.975 -0.165 -0.238 -0.336 -10.557 -1.763
1.9427587919999993 0.998 -0.156 -0.233 -0.198 -8.916 1.55
1.9547475000000034 1.018 -0.116 -0.279 2.603 0.389 5.473
1.9620675000000034 1.006 -0.077 -0.328 3.221 10.496 7.389
1.9743050420000046 0.996 -0.106 -0.311 0.328 16.076 7.427
1.9814591670000041 0.991 -0.139 -0.27 -0.427 14.015 3.298
1.993779625000002 0.964 -0.163 -0.234 -2.092 3.847 0.206
2.0055081250000057 0.969 -0.194 -0.238 -2.924 -2.901 -1.496
2.0128055420000024 0.971 -0.195 -0.214 -1.557 -4.084 -0.252
2.0247542920000043 0.999 -0.146 -0.222 2.893 -0.878 3.573
2.0320776249999994 1.036 -0.094 -0.255 7.183 3.985 5.397
2.0443639170000054 1.023 -0.088 -0.289 9.26 12.053 4.863
2.051577833000003 0.994 -0.118 -0.307 8.053 17.74 4.351
2.063623833000001 0.947 -0.169 -0.289 4.015 17.855 1.176
2.0709293750000057 0.931 -0.2 -0.235 -0.267 6.359 -1.473
2.0827014580000025 0.939 -0.194 -0.245 -3.221 -4.992 -1.985
2.0947253329999995 0.959 -0.133 -0.252 -2.824 -8.962 1.198
2.1021711250000052 1.001 -0.099 -0.303 -0.656 -4.519 3.481
2.114165167000003 0.965 -0.094 -0.328 -1.779 6.336 4.87
2.1215194580000016 0.981 -0.165 -0.283 -4.053 14.962 5.504
2.1334471250000036 0.954 -0.213 -0.234 -2.305 19.0 2.786
2.1454197080000057 0.916 -0.233 -0.175 0.115 12.382 2.702
2.152993500000001 0.932 -0.201 -0.172 5.221 2.076 4.275
2.1649962500000015 0.964 -0.137 -0.241 9.328 -3.954 5.687
2.1722736250000025 1.009 -0.085 -0.303 7.496 -6.725 7.939
2.1846812080000007 1.002 -0.091 -0.368 1.977 1.504 7.427
2.1919535420000003 1.014 -0.125 -0.356 -7.573 8.298 5.473
2.2037300830000035 0.995 -0.181 -0.286 -13.084 12.542 2.962
2.210927875000003 0.977 -0.196 -0.23 -12.664 12.397 1.267
2.222929624999999 0.959 -0.19 -0.16 -6.756 6.672 1.046
2.2353430000000003 0.975 -0.15 -0.198 0.374 2.069 2.931
2.242709542 0.984 -0.124 -0.231 4.435 0.969 5.405
2.254787625000006 1.027 -0.126 -0.261 5.954 4.855 5.832
2.261777375000001 0.99 -0.144 -0.31 3.42 11.16 6.214
2.2740651670000034 0.968 -0.18 -0.291 -4.275 12.221 6.061
2.281374083000003 0.99 -0.2 -0.234 -8.802 8.252 3.229
2.2934190420000036 0.971 -0.216 -0.217 -8.412 4.405 3.183
2.3053992500000007 0.968 -0.208 -0.193 -4.511 5.725 3.74
2.3130290830000035 0.984 -0.203 -0.166 2.947 5.771 3.74
2.325042332999999 0.988 -0.198 -0.17 8.954 7.092 4.038
2.3320865000000026 0.976 -0.176 -0.186 13.74 7.542 4.053
2.3446435000000037 0.945 -0.159 -0.229 15.092 7.282 4.939
2.351857333000005 0.916 -0.156 -0.249 11.267 4.626 6.733
2.363904667 0.966 -0.167 -0.252 5.695 -2.061 5.206
2.371196958000006 1.0 -0.182 -0.258 1.901 -4.664 2.588
2.3831607080000055 1.049 -0.146 -0.257 -1.344 -8.023 1.962
2.395233042000001 1.059 -0.11 -0.261 -2.176 -6.695 0.198
2.402499375000005 1.036 -0.097 -0.28 -3.863 -1.137 1.359
2.4146250830000042 1.04 -0.136 -0.286 -5.069 12.298 2.557
2.421628292000001 0.984 -0.2 -0.235 -4.977 20.038 1.794
2.4336069169999988 0.912 -0.25 -0.195 -3.206 23.542 1.573
2.4408969999999997 0.901 -0.24 -0.124 -1.595 10.519 3.198
2.4530450829999992 0.948 -0.192 -0.117 3.42 -8.672 -0.496
2.4650232500000016 0.986 -0.14 -0.191 4.962 -20.382 1.718
2.472276583000003 1.05 -0.126 -0.277 2.191 -21.58 1.115
2.484353917 1.056 -0.138 -0.321 -1.221 -5.962 2.069
2.4913671250000036 1.04 -0.2 -0.318 -6.0 12.954 2.015
2.5033895000000044 0.959 -0.241 -0.217 -8.366 23.298 0.321
