Time AX AY AZ GX GY GZ
0.012694292000006158 -0.678 -0.242 0.68 1.015 -0.725 -2.344
0.01967054200000007 -0.692 -0.21 0.67 1.939 -1.115 -3.046
0.03203754199999764 -0.691 -0.197 0.676 3.061 0.42 -3.023
0.038989749999998935 -0.688 -0.215 0.675 3.71 0.321 -3.855
0.051169624999999996 -0.692 -0.219 0.678 5.031 -1.389 -4.298
0.06352820900001177 -0.699 -0.21 0.65 6.695 -2.702 -3.069
0.07032162500000538 -0.693 -0.197 0.636 6.275 -1.389 -2.153
0.08259245900001133 -0.709 -0.201 0.622 4.374 2.481 -2.168
0.08967208400000004 -0.72 -0.211 0.637 1.29 4.58 -3.069
0.10190545900000814 -0.708 -0.234 0.659 0.931 4.412 -4.237
0.10891341700001078 -0.714 -0.256 0.647 1.29 4.008 -5.618
0.12142004200001111 -0.734 -0.254 0.642 0.931 4.863 -4.473
0.13370037500000365 -0.738 -0.235 0.65 0.573 4.626 -1.489
0.14058516700001178 -0.721 -0.22 0.652 1.252 2.504 0.481
0.15306029200000637 -0.701 -0.215 0.639 1.237 1.305 0.305
0.1600435840000074 -0.681 -0.211 0.635 2.275 0.855 0.046
0.17261458400000151 -0.695 -0.2 0.63 2.725 1.687 0.916
0.1795491250000083 -0.723 -0.229 0.618 2.786 3.824 1.611
0.19212766700000827 -0.739 -0.249 0.645 1.672 2.038 0.473
0.19914091700000824 -0.743 -0.237 0.68 1.16 -5.931 -0.046
0.21137762500001145 -0.7 -0.223 0.677 2.038 -14.542 0.183
0.22360570900001164 -0.653 -0.207 0.629 1.137 -16.29 2.832
0.2303873750000065 -0.633 -0.181 0.601 -0.282 -10.084 -1.641
0.2427344170000083 -0.666 -0.178 0.595 -2.916 0.313 -1.893
0.24942020900000728 -0.723 -0.2 0.642 -4.397 5.534 -3.13
0.261699458999999 -0.777 -0.223 0.704 -3.061 1.16 -1.985
0.27401437500000725 -0.78 -0.236 0.74 -0.305 -11.893 -0.206
0.28085458400001073 -0.79 -0.242 0.736 3.992 -23.069 2.84
0.29293825000000595 -0.773 -0.254 0.697 7.26 -27.046 5.916
0.3000449170000081 -0.733 -0.243 0.686 8.664 -29.771 7.115
0.31233158400000605 -0.651 -0.204 0.691 10.084 -32.947 5.695
0.31909058400000845 -0.609 -0.158 0.643 8.824 -29.519 3.244
0.33126854200000366 -0.627 -0.156 0.595 3.817 -14.847 0.725
0.34340841700000624 -0.666 -0.178 0.612 -1.305 -0.908 -0.153
0.3506107919999977 -0.728 -0.21 0.667 -4.321 3.099 0.313
0.3627610000000061 -0.784 -0.236 0.732 -3.321 -4.695 2.977
0.36979670899999917 -0.807 -0.236 0.774 0.206 -21.267 6.855
0.38214008399999955 -0.796 -0.223 0.779 5.229 -39.702 9.611
0.3939057090000091 -0.788 -0.223 0.788 11.298 -55.595 12.374
0.4007047919999991 -0.795 -0.234 0.782 16.672 -69.893 14.656
0.41267120900000975 -0.802 -0.231 0.792 22.878 -87.221 18.45
0.41943658400001027 -0.79 -0.212 0.79 29.29 -106.328 24.092
0.43136504200001013 -0.758 -0.193 0.765 33.679 -123.313 29.321
0.4433421250000009 -0.717 -0.182 0.738 35.45 -132.321 32.588
0.45014045900001065 -0.668 -0.184 0.726 34.947 -135.679 33.74
0.46217312500000673 -0.616 -0.175 0.736 33.366 -137.557 33.336
0.4679397090000066 -0.592 -0.171 0.739 31.679 -137.557 33.366
0.4806087919999982 -0.538 -0.153 0.757 30.0 -134.748 33.435
0.492703750000004 -0.472 -0.151 0.773 28.282 -129.969 33.061
0.4993646670000089 -0.41 -0.127 0.771 26.359 -122.389 30.206
0.5113927920000094 -0.377 -0.106 0.766 22.542 -109.511 26.305
0.5233919590000085 -0.365 -0.092 0.768 18.313 -94.038 22.237
0.5301280420000012 -0.369 -0.098 0.788 14.679 -79.878 18.756
0.5424252920000043 -0.403 -0.107 0.828 11.519 -69.466 15.321
0.549138499999998 -0.426 -0.107 0.868 9.405 -65.656 13.069
0.5613961669999981 -0.452 -0.104 0.904 9.351 -66.885 13.221
0.5733760420000067 -0.445 -0.106 0.919 9.473 -69.565 14.908
0.5803752090000103 -0.407 -0.104 0.915 9.832 -70.901 15.71
0.5924717919999978 -0.438 -0.082 0.891 8.802 -69.542 17.382
0.5994230840000085 -0.498 -0.087 0.927 9.802 -67.336 20.038
0.6113774169999999 -0.471 -0.129 0.998 14.389 -80.901 19.931
0.6234219170000017 -0.441 -0.118 1.011 21.176 -103.412 19.458
0.6301805000000087 -0.382 -0.088 0.941 24.573 -119.58 19.534
0.6421882090000111 -0.292 -0.049 0.866 22.695 -120.939 18.771
0.648021374999999 -0.22 -0.02 0.814 17.58 -108.359 17.282
0.661076958999999 -0.18 -0.011 0.789 10.931 -89.229 15.87
0.6730606250000051 -0.173 -0.035 0.824 2.824 -70.824 13.931
0.6797248339999982 -0.206 -0.052 0.883 -2.389 -61.473 12.779
0.6922849170000092 -0.321 -0.057 0.941 -3.992 -62.817 13.351
0.704196459000002 -0.405 -0.092 1.012 -1.649 -80.977 15.634
0.7111338340000088 -0.407 -0.112 1.067 5.122 -113.679 19.809
0.7229081250000036 -0.319 -0.104 1.031 12.115 -145.015 23.053
0.7299804590000036 -0.168 -0.074 0.944 14.107 -157.794 23.336
0.7416700840000061 -0.026 -0.046 0.851 11.069 -145.015 21.053
0.7535660000000064 0.038 -0.029 0.806 4.366 -115.771 17.443
0.7608962919999982 0.044 -0.027 0.826 -2.802 -82.351 15.931
0.7726800420000046 0.046 -0.046 0.893 -7.832 -59.763 13.252
0.7797374590000032 -0.064 -0.051 0.947 -10.611 -48.527 12.832
0.791482459000008 -0.154 -0.069 1.017 -8.824 -49.374 15.328
0.8035165000000006 -0.159 -0.102 1.101 -0.779 -71.603 18.557
0.8106084170000116 -0.168 -0.109 1.081 9.931 -101.519 20.718
0.8223299170000047 -0.152 -0.093 1.04 16.756 -127.504 22.969
0.8283195000000063 -0.053 -0.061 0.95 18.176 -144.489 23.969
0.8412098750000041 0.039 -0.012 0.903 13.611 -147.855 23.687
0.8529962500000039 0.149 -0.005 0.887 7.29 -136.595 19.832
0.8603352089999987 0.169 0.007 0.89 1.489 -116.504 15.824
0.8723592090000096 0.182 -0.013 0.892 -4.458 -96.107 18.0
0.8794083340000043 0.148 -0.036 0.947 -7.397 -78.595 18.0
0.8914852919999987 0.042 -0.057 1.012 -6.427 -76.786 18.641
0.903254167 -0.022 -0.073 1.106 -2.321 -100.786 21.969
0.9103232500000047 -0.032 -0.093 1.116 3.649 -135.679 25.168
0.9221832500000033 0.089 -0.103 1.052 5.366 -164.557 24.519
0.92941337500001 0.238 -0.083 1.019 3.641 -179.802 9.122
0.9414299590000041 0.265 -0.01 0.934 1.611 -173.008 8.626
0.9531898339999998 0.29 -0.025 0.835 -2.382 -150.16 13.359
0.9603697090000054 0.275 -0.058 0.84 -6.443 -122.893 17.756
0.9723117090000102 0.269 -0.056 0.922 -8.015 -112.855 20.336
0.9794657919999992 0.286 -0.051 0.991 -7.382 -122.061 20.573
0.9912211250000098 0.352 -0.062 1.015 -5.885 -135.771 18.053
1.0029929170000003 0.413 -0.06 0.958 -4.405 -140.435 14.458
1.0097586669999998 0.407 -0.073 0.858 -3.656 -127.221 13.092
1.0219692090000052 0.388 -0.078 0.856 -6.901 -111.656 13.748
1.0338777090000093 0.381 -0.075 0.914 -8.382 -105.26 15.153
1.0405958340000012 0.396 -0.079 0.976 -6.611 -111.031 17.412
1.0525499170000074 0.425 -0.094 0.987 -1.947 -120.656 17.718
1.0595839169999977 0.518 -0.086 0.97 4.42 -129.305 17.679
1.0716331250000053 0.57 -0.077 0.892 9.107 -128.702 15.649
1.0839330419999982 0.615 -0.068 0.841 8.878 -116.305 14.191
1.090870959 0.596 -0.071 0.757 7.809 -93.992 12.237
1.1031390420000093 0.544 -0.079 0.771 4.687 -71.45 12.771
1.1098750000000024 0.485 -0.072 0.804 3.756 -64.13 13.053
1.12217612500001 0.387 -0.065 0.879 5.527 -77.038 18.985
1.129186875000002 0.383 -0.067 0.934 8.214 -102.954 26.901
1.1411889590000044 0.5 -0.082 0.919 11.878 -126.603 32.611
1.1531380840000054 0.662 -0.102 0.84 14.557 -133.466 32.412
1.1601129590000028 0.803 -0.117 0.75 16.534 -117.382 21.962
1.17223525 0.723 -0.072 0.681 15.74 -94.573 10.237
1.1790821670000042 0.683 -0.048 0.69 10.565 -76.298 17.015
1.191262542000004 0.633 -0.077 0.677 6.221 -59.656 20.26
1.2034395840000087 0.538 -0.086 0.719 3.122 -57.382 20.466
1.2107685000000004 0.554 -0.093 0.822 3.947 -81.71 23.695
1.222850833999999 0.577 -0.083 0.792 7.618 -111.061 27.084
1.2298625420000064 0.673 -0.093 0.723 9.489 -124.061 28.924
1.2416732089999982 0.804 -0.111 0.633 10.557 -120.107 21.672
1.2536796250000037 0.699 -0.056 0.579 10.626 -107.58 16.13
1.260862000000003 0.704 -0.076 0.607 8.282 -99.863 25.672
1.2727883339999977 0.739 -0.147 0.624 6.786 -95.893 26.832
1.2800922090000029 0.733 -0.146 0.651 5.443 -97.55 25.565
1.2921353340000081 0.771 -0.126 0.67 5.824 -101.962 27.435
1.298049750000004 0.852 -0.123 0.592 6.702 -99.947 24.55
1.311215125000004 0.847 -0.11 0.549 5.779 -94.496 15.427
1.3232793749999985 0.849 -0.104 0.482 2.496 -81.473 20.931
1.3306149170000054 0.865 -0.084 0.442 -1.977 -63.679 23.107
1.342352875000003 0.9 -0.077 0.494 -7.382 -53.656 19.267
1.3494008340000079 0.866 -0.052 0.547 -10.84 -53.664 18.282
1.3613880420000015 0.878 -0.069 0.592 -12.374 -61.221 17.351
1.3732461250000085 0.907 -0.115 0.575 -12.672 -65.519 12.756
1.3802904169999977 0.786 -0.09 0.604 -9.496 -70.519 5.916
1.3923747090000091 0.806 -0.151 0.577 -4.458 -77.359 16.076
1.3996061250000054 0.836 -0.194 0.538 -0.847 -78.504 20.183
1.4114064170000091 0.901 -0.174 0.516 -0.366 -78.084 17.038
1.4234593750000073 0.869 -0.101 0.493 2.313 -79.634 16.0
1.4308005840000106 0.862 -0.097 0.456 4.115 -81.893 22.183
1.4427706250000085 0.885 -0.098 0.393 1.389 -80.702 26.191
1.4498654590000086 0.899 -0.083 0.364 -3.099 -78.817 25.55
1.461913750000008 0.895 -0.095 0.387 -9.023 -82.321 25.221
1.473673875000003 0.976 -0.195 0.435 -15.008 -89.0 13.924
1.4807470420000044 0.817 -0.143 0.447 -15.893 -97.74 10.328
1.4925340420000026 0.914 -0.237 0.435 -11.504 -105.473 10.015
1.4996531670000053 0.908 -0.187 0.323 -6.58 -106.427 14.763
1.5116484170000035 0.936 -0.149 0.24 -8.74 -94.015 16.824
1.5235302090000005 0.943 -0.114 0.26 -12.748 -85.87 15.061
1.5305985840000034 0.947 -0.114 0.316 -16.924 -90.328 14.855
1.5425855000000013 0.936 -0.139 0.288 -22.023 -92.977 12.122
1.549629459000002 0.977 -0.182 0.283 -27.656 -91.305 8.237
1.5616890000000012 0.989 -0.175 0.247 -31.931 -88.115 3.122
1.5734583750000013 0.958 -0.165 0.166 -38.107 -76.374 3.542
1.5807556670000054 0.928 -0.18 0.185 -42.221 -65.145 0.565
1.5925731250000013 0.911 -0.176 0.217 -45.939 -69.962 -0.817
1.5997546669999991 0.84 -0.154 0.217 -50.779 -86.443 -3.046
1.6114142920000063 0.847 -0.161 0.226 -58.542 -109.206 0.962
1.6232075839999993 0.932 -0.199 0.191 -58.389 -127.046 -2.878
1.6302814590000025 0.938 -0.227 0.161 -58.405 -136.344 -8.573
1.6421006249999976 0.942 -0.205 0.08 -58.214 -136.107 -3.145
1.6539380420000072 0.969 -0.214 -0.008 -66.168 -123.725 -1.534
1.6607755420000103 0.99 -0.204 0.02 -70.443 -109.26 -5.702
1.672535417000006 0.978 -0.174 0.007 -75.16 -106.74 -3.168
1.6796364590000081 1.042 -0.184 0.063 -76.878 -108.687 -2.389
1.6914950419999997 1.068 -0.191 0.025 -75.641 -109.481 -4.885
1.7032492920000095 1.062 -0.189 -0.007 -78.107 -108.053 -8.0
1.710074834000011 1.077 -0.193 -0.022 -77.542 -103.389 -7.366
1.7219956250000052 1.018 -0.192 -0.119 -79.008 -93.389 -7.069
1.7337376250000034 0.996 -0.178 -0.161 -89.969 -88.733 -12.641
1.7405352090000008 0.98 -0.157 -0.077 -95.382 -91.931 -9.718
1.7523255840000047 1.036 -0.222 -0.044 -97.618 -101.206 -12.267
1.7639321250000108 1.044 -0.232 -0.052 -95.893 -109.008 -12.443
1.7707322920000053 1.097 -0.221 -0.078 -89.611 -108.824 -8.985
1.782602084000004 1.141 -0.195 -0.17 -78.695 -94.511 -8.992
1.7896738750000054 1.027 -0.171 -0.335 -79.053 -64.244 -11.176
1.8016365420000113 0.962 -0.174 -0.316 -83.55 -40.16 -7.885
1.8131560420000028 1.011 -0.186 -0.179 -87.443 -44.618 -7.504
1.8197620000000114 1.041 -0.152 -0.104 -86.504 -66.557 -9.634
1.8317811670000026 1.042 -0.138 -0.15 -83.0 -82.947 -7.916
1.843685750000006 1.042 -0.139 -0.269 -80.397 -77.603 -5.008
1.8507846250000028 1.083 -0.157 -0.267 -72.115 -62.282 -2.305
1.8625562090000045 1.037 -0.186 -0.348 -62.962 -34.542 -6.092
1.8697078750000031 0.968 -0.178 -0.276 -60.313 -18.244 -3.664
1.8814674590000067 1.022 -0.179 -0.161 -53.198 -24.092 -1.954
1.8932526669999987 1.048 -0.174 -0.092 -44.626 -42.305 -3.634
1.9000317920000072 1.021 -0.157 -0.226 -35.634 -49.771 -1.885
1.9121015000000057 0.981 -0.143 -0.329 -35.069 -41.305 3.038
1.9239932920000058 1.052 -0.121 -0.353 -32.458 -28.351 7.359
1.931041209 1.06 -0.051 -0.344 -29.511 -19.489 6.756
1.9431078750000097 1.061 0.012 -0.349 -30.489 -20.313 7.802
1.950095250000004 1.081 -0.039 -0.342 -33.206 -19.618 8.45
1.9619238340000038 1.125 -0.168 -0.313 -32.649 -9.252 3.695
1.9739179170000085 1.094 -0.224 -0.292 -26.122 7.931 -0.756
1.9809999170000054 0.986 -0.197 -0.309 -17.16 26.427 0.893
1.9929500840000003 0.91 -0.115 -0.268 -7.519 34.893 4.977
2.0002731250000068 0.919 -0.042 -0.19 1.649 20.221 8.099
2.0126007090000115 0.934 -0.076 -0.2 9.321 -0.656 6.557
2.0196010000000086 0.958 -0.166 -0.252 11.221 -16.481 3.084
2.0317219169999987 0.972 -0.217 -0.335 6.221 -19.618 0.153
2.043686125000008 0.979 -0.193 -0.365 -2.397 -17.588 0.336
2.0507206670000073 1.02 -0.138 -0.33 -7.366 -12.786 2.16
2.0628073750000055 1.017 -0.086 -0.375 -8.206 -0.305 4.153
2.070085375000005 0.991 -0.094 -0.363 -7.649 16.115 6.939
2.0820965839999985 0.977 -0.107 -0.326 -3.969 23.962 7.573
2.088039750000007 0.94 -0.139 -0.267 -0.55 22.427 5.137
2.101439584000005 0.904 -0.184 -0.246 0.824 15.588 0.13
2.113420000000005 0.904 -0.195 -0.176 2.382 -3.718 -0.557
2.1204980420000084 0.955 -0.147 -0.196 4.504 -24.71 0.901
2.1326556670000087 0.999 -0.07 -0.304 3.504 -35.748 2.931
2.139918625000007 1.055 -0.048 -0.418 -1.588 -23.763 5.664
2.151939249999998 1.074 -0.105 -0.474 -7.0 4.985 5.71
2.163976667 1.021 -0.159 -0.397 -8.763 34.053 3.603
2.1711904170000054 0.962 -0.171 -0.278 -5.092 43.634 2.29
2.1832727500000004 0.899 -0.14 -0.196 -0.153 30.435 2.443
2.190496500000009 0.899 -0.114 -0.176 3.275 5.038 4.137
2.2026075420000097 0.956 -0.115 -0.216 3.786 -17.122 4.374
2.20980775000001 0.982 -0.125 -0.333 1.015 -19.992 3.229
2.2218857090000057 1.004 -0.143 -0.391 -3.947 -5.626 3.282
2.2342235840000058 1.016 -0.176 -0.375 -6.55 15.802 3.168
2.2409205000000014 0.992 -0.181 -0.284 -3.595 30.511 3.092
2.2532921250000015 0.944 -0.143 -0.244 1.206 30.389 3.519
2.2605550840000035 0.917 -0.126 -0.229 6.244 22.847 4.023
2.272556917000003 0.893 -0.12 -0.237 7.145 6.802 4.779
2.279924459 0.903 -0.129 -0.297 2.992 -4.969 6.473
2.2918598340000074 0.943 -0.165 -0.319 -3.084 -8.58 5.336
2.303932125000003 0.992 -0.186 -0.324 -5.794 -5.176 3.168
2.3112487500000043 0.975 -0.163 -0.326 -5.908 3.412 3.527
2.3231982090000116 0.98 -0.128 -0.297 -2.802 11.824 5.008
2.330569667000006 1.002 -0.1 -0.233 4.878 11.985 5.42
2.342811542000007 0.994 -0.094 -0.235 10.542 6.992 4.786
2.3501326250000005 0.946 -0.138 -0.292 8.885 6.504 4.351
2.362251917000009 0.947 -0.201 -0.301 2.634 4.595 2.718
2.3690249590000008 0.973 -0.217 -0.266 -2.221 -1.573 -0.366
2.3816147500000113 0.966 -0.153 -0.255 -3.542 -7.908 -1.221
2.3934776250000027 0.974 -0.11 -0.28 -3.504 -6.046 2.71
2.4008572919999978 1.025 -0.111 -0.288 -0.786 2.145 5.916
2.4127043340000114 1.05 -0.111 -0.284 3.542 13.153 8.687
2.4199726249999998 0.993 -0.16 -0.325 3.611 28.046 9.16
2.432152459000008 0.949 -0.205 -0.259 0.954 31.985 7.053
2.439444917000003 0.939 -0.199 -0.18 0.542 18.153 4.015
2.451699750000003 0.927 -0.187 -0.164 1.466 -3.931 1.595
2.4636792090000057 0.968 -0.158 -0.183 3.298 -20.756 1.45
2.4707468340000105 1.005 -0.118 -0.308 5.489 -19.977 3.565
2.483092124999999 1.026 -0.095 -0.378 2.443 -3.847 5.893
2.489851334000008 1.023 -0.103 -0.377 -0.344 19.046 7.641
2.5021240420000055 0.996 -0.156 -0.319 -4.023 32.664 6.649
