Time,AX,AY,AZ,GX,GY,GZ,T
0.0000,-0.0290,-0.0910,1.1950,0.7630,23.4050,-9.1910,33.9900
0.0004,-0.0360,-0.0770,1.2150,-5.0080,26.6110,-6.6260,33.9400
0.0008,-0.0060,0.0110,1.2600,0.8850,28.0920,-4.5950,33.9900
0.0011,-0.0010,0.0720,1.2890,14.6110,34.1370,-2.8090,33.9900
0.0015,0.0310,0.0860,1.2380,16.5190,35.7560,1.6490,34.0400
0.0019,0.0040,0.0480,1.1650,6.5650,44.8240,-9.5420,33.9900
0.0022,0.0060,0.0320,1.1010,-10.8240,44.8240,-16.4890,33.9400
0.0025,-0.0180,-0.0180,1.0670,-17.1450,40.9010,-24.5190,34.0400
0.0029,-0.0280,-0.0600,1.0570,-12.4580,37.2820,-31.8320,33.9400
0.0033,-0.0410,-0.1020,1.0670,-7.4500,27.6030,-29.5420,33.8500
0.0036,-0.0450,-0.1240,1.0980,1.6490,22.6260,-27.9240,33.9900
0.0039,-0.0480,-0.1210,1.1330,8.1980,19.7400,-26.5190,33.9400
0.0045,-0.0580,-0.0880,1.1650,6.0610,18.9310,-23.1300,33.9400
0.0049,-0.0590,-0.0690,1.1520,3.6490,19.3440,-21.4500,33.9900
0.0052,-0.0520,-0.0400,1.1710,3.9850,18.3660,-24.3970,33.9400
0.0061,-0.0130,0.0300,1.2000,0.6720,17.9240,-24.6410,33.8900
0.0064,-0.0050,0.0580,1.2070,2.2440,17.0840,-21.6030,33.8900
0.0068,0.0300,0.0450,1.2070,4.8240,17.8020,-30.2140,34.0400
0.0071,0.0310,0.0430,1.2220,8.3820,19.2210,-35.8320,33.8900
0.0075,0.0230,0.0180,1.2120,5.2520,18.3820,-39.6180,33.9400
0.0078,-0.0080,-0.0170,1.2270,8.4270,15.9390,-42.1220,33.9900
0.0081,-0.0010,-0.0190,1.2430,8.6720,17.4350,-38.8400,34.0400
0.0085,0.0030,-0.0580,1.2170,7.5880,16.3050,-34.9620,33.9400
0.0088,-0.0040,-0.0650,1.2380,3.4660,18.6110,-36.6260,33.9900
0.0091,-0.0040,-0.0360,1.2570,-5.5880,19.0840,-36.6410,33.9400
0.0095,-0.0130,-0.0300,1.2490,-12.0310,21.5880,-39.5570,33.9400
0.0099,-0.0260,0.0000,1.2500,-12.9920,23.7860,-42.4430,33.8900
0.0102,-0.0540,-0.0190,1.2150,-9.0840,23.6030,-44.1530,33.9400
0.0106,-0.0500,-0.0340,1.1690,-2.1680,22.0610,-47.8020,33.8900
0.0109,-0.0550,-0.0500,1.1310,-2.9310,19.7860,-54.3510,33.9900
0.0113,-0.0300,-0.0600,1.1140,-9.3130,17.7710,-60.7940,33.9400
0.0116,-0.0230,-0.0630,1.1140,-14.1530,13.0080,-60.0610,33.8900
0.0120,0.0040,-0.0440,1.1130,-8.3970,8.1070,-48.9470,33.9400
0.0125,0.0090,-0.0330,1.1390,-0.4270,3.8780,-39.6640,33.9400
0.0129,0.0160,-0.0260,1.1410,-2.2440,3.1760,-39.3280,33.9400
0.0132,0.0230,-0.0260,1.1560,-7.8320,2.9010,-40.8700,33.9400
0.0136,0.0270,-0.0300,1.1500,-12.3210,2.9010,-44.5340,33.8900
0.0144,0.0050,-0.0360,1.1620,-14.7020,2.4120,-47.7560,33.9900
0.0149,-0.0080,-0.0410,1.1830,-11.8020,1.2820,-48.0760,33.9400
0.0153,-0.0130,-0.0900,1.1950,-0.4580,4.9620,-45.4660,33.9900
0.0157,-0.0030,-0.1440,1.1880,-2.3660,6.4430,-43.9080,33.9400
0.0160,-0.0070,-0.1490,1.1830,-10.9470,9.5420,-39.7250,33.9400
0.0164,-0.0060,-0.1160,1.1400,-12.5040,11.6340,-32.8400,33.8900
0.0167,0.0080,-0.1040,1.1080,-7.9390,9.8320,-28.9160,33.9400
0.0171,0.0060,-0.1100,1.1000,-5.9080,6.8400,-28.9470,33.8900
0.0174,0.0350,-0.0660,1.1010,-10.1680,3.5270,-28.8400,33.9900
0.0180,0.0460,-0.0360,1.1030,-13.5730,0.9470,-32.1070,33.9400
0.0224,0.0530,-0.0130,1.1250,-13.5110,0.7330,-35.8780,33.9900
0.0229,0.0580,-0.0160,1.1600,-9.8630,-0.0460,-38.0310,33.8500
0.0237,0.0760,-0.0230,1.1920,-7.3890,1.5270,-41.5420,33.9400
0.0239,0.0800,-0.0220,1.2220,-11.2980,2.9920,-43.9850,33.9900
0.0241,0.0780,-0.0230,1.1980,-8.9010,7.1600,-45.1300,33.9400
0.0245,0.0720,-0.0340,1.1860,-5.9240,8.6870,-47.7860,33.8900
0.0248,0.0520,-0.0640,1.1840,-6.5800,9.9240,-46.0310,33.9400
0.0251,0.0520,-0.1060,1.1750,-10.3970,13.9540,-44.8700,33.9400
0.0255,0.0430,-0.0960,1.1830,-16.3660,12.7480,-42.9010,33.9900
0.0259,0.0680,-0.0720,1.1560,-26.1830,14.2440,-43.5270,34.0400
0.0262,0.0750,-0.0620,1.1390,-20.2900,14.8400,-45.0990,33.8900
0.0265,0.0530,-0.1160,1.1490,-6.3820,11.1600,-47.8930,33.9900
0.0268,0.0640,-0.1370,1.1750,-4.0760,8.5040,-50.0310,33.9400
0.0276,0.0490,-0.1700,1.1980,-2.4120,7.6180,-47.4660,33.8900
0.0280,0.0430,-0.1440,1.2220,-1.2670,14.0760,-45.1150,33.9400
0.0283,0.0430,-0.1100,1.2610,5.8320,12.8240,-40.6560,33.9400
0.0286,0.0600,-0.0760,1.2260,3.0840,16.1370,-44.1980,33.9900
0.0290,0.0510,-0.0620,1.2170,-5.7100,19.3890,-46.5340,33.9400
0.0293,0.0480,-0.0460,1.2050,-5.8930,17.7860,-47.0990,33.9900
0.0297,0.0330,-0.0470,1.2010,-7.8470,16.7790,-49.7100,33.9400
0.0299,0.0190,-0.0500,1.2000,-9.7710,16.0150,-50.9010,33.9400
0.0302,0.0140,-0.0740,1.2070,-6.0150,15.5420,-51.0380,33.9900
0.0307,0.0130,-0.0950,1.1970,1.6490,15.8780,-54.6410,33.8500
0.0311,0.0180,-0.1100,1.1980,6.3210,15.7100,-53.7400,34.0400
0.0313,0.0160,-0.1330,1.1890,5.4500,15.7400,-54.5500,33.9900
0.0315,0.0210,-0.1530,1.1850,4.5500,12.0310,-54.6870,33.9400
0.0318,0.0150,-0.1320,1.2060,2.3210,13.5270,-52.6110,33.8900
0.0322,0.0440,-0.1030,1.1900,-11.8470,12.4430,-51.6030,33.8900
0.0325,0.0360,-0.0890,1.2490,-12.1370,9.0840,-44.3210,33.9400
0.0329,0.0410,-0.0900,1.2230,3.0690,21.2820,-41.1910,33.9900
0.0332,0.0540,-0.0620,1.2070,-4.0150,23.1450,-45.4350,33.9400
0.0335,0.0350,-0.0470,1.1870,-12.8240,22.3210,-45.9540,34.0400
0.0341,0.0300,-0.0390,1.1750,-8.2900,19.1450,-46.1830,33.9900
0.0344,0.0390,-0.0520,1.1730,-6.0150,16.2290,-47.7710,33.8500
0.0348,0.0420,-0.0780,1.1780,-9.4200,18.3970,-51.0530,33.8900
0.0351,0.0390,-0.1030,1.1690,-15.4660,17.8020,-51.7860,33.8000
0.0355,0.0120,-0.1320,1.1930,-14.4120,15.7400,-48.9470,34.0400
0.0358,0.0130,-0.1530,1.1940,-8.9160,13.6340,-46.0000,33.9900
0.0362,0.0230,-0.1260,1.2270,-7.8630,16.4890,-45.0380,34.0400
0.0368,0.0410,-0.0960,1.2260,-16.3970,16.3210,-44.0310,34.0400
0.0372,0.0330,-0.0910,1.2020,-11.7560,17.0530,-44.5040,33.9900
0.0375,0.0290,-0.0830,1.1990,-8.1370,18.4270,-47.3280,33.9400
0.0377,0.0230,-0.0830,1.2000,-12.4890,20.5950,-46.8850,33.9900
0.0381,0.0230,-0.0880,1.1910,-15.2370,19.8170,-48.5500,33.9900
0.0386,0.0260,-0.0990,1.1920,-8.3510,18.8240,-49.2820,33.9400
0.0396,0.0440,-0.1120,1.1860,1.3130,17.7860,-49.8930,33.8900
0.0398,0.0360,-0.1410,1.1830,0.9920,16.4120,-51.5110,33.9400
0.0404,0.0350,-0.1600,1.1850,1.4050,16.1980,-52.5950,33.9400
0.0405,0.0400,-0.1450,1.2030,1.5570,18.7480,-51.0530,33.8000
0.0407,0.0420,-0.1390,1.1810,-3.6950,21.2210,-51.6640,33.9400
0.0411,0.0570,-0.1230,1.1730,-6.5650,21.8930,-50.6870,33.9900
0.0414,0.0530,-0.1080,1.1740,-8.9160,22.7020,-51.1600,33.9400
0.0428,0.0530,-0.0960,1.1660,-4.8850,21.1150,-47.8780,33.9400
0.0431,0.0530,-0.0830,1.1840,7.5570,20.1830,-46.4270,33.9900
0.0435,0.0470,-0.1010,1.1870,9.6490,20.9310,-44.7330,34.0400
0.0440,0.0420,-0.1260,1.1560,5.6790,21.7860,-44.6720,33.9400
0.0444,0.0260,-0.1120,1.1460,2.9770,22.8090,-45.7560,33.9900
0.0448,0.0380,-0.1000,1.1540,1.7250,23.1300,-46.3050,33.9400
0.0451,0.0210,-0.0970,1.1580,-1.6640,23.5110,-46.0150,33.8900
0.0454,0.0210,-0.1020,1.1480,-7.8780,23.0840,-47.2060,33.9900
0.0458,0.0320,-0.1120,1.1340,-10.2140,22.1370,-47.8930,33.9400
0.0462,0.0330,-0.0990,1.1090,-3.4810,20.5040,-44.8700,33.9900
0.0465,0.0360,-0.1140,1.1360,1.9240,18.7020,-45.0080,33.9400
0.0469,0.0480,-0.1210,1.1560,-1.6790,16.4730,-44.4890,33.8500
0.0479,0.0430,-0.1160,1.1650,1.4350,15.0230,-44.1530,33.8900
0.0483,0.0400,-0.1040,1.1960,5.9390,17.2060,-44.0310,33.9400
0.0488,0.0420,-0.0830,1.2100,2.0460,19.8320,-43.5880,33.8900
0.0492,0.0310,-0.0610,1.2050,-4.3820,23.2060,-44.9920,33.9900
0.0496,0.0200,-0.0450,1.1710,-8.2290,25.4810,-47.5880,33.9400
0.0498,0.0130,-0.0590,1.1520,-6.0610,24.6260,-48.5650,33.8900
0.0500,0.0180,-0.0810,1.1290,-5.6950,22.6560,-48.2900,33.9400
0.0501,0.0290,-0.0990,1.1400,-3.2370,18.9470,-48.7940,33.9400
0.0503,0.0330,-0.1070,1.1590,-4.2750,16.8550,-50.9010,33.8900
0.0505,0.0200,-0.1150,1.1760,-6.5340,15.1760,-51.1450,33.9400
0.0507,0.0190,-0.1270,1.2040,-3.9240,16.6720,-50.8090,33.9900
0.0509,0.0120,-0.1350,1.2410,-3.4500,18.6870,-50.7630,33.8500
0.0511,0.0150,-0.1450,1.2520,-6.8400,22.0760,-48.9160,33.9400
0.0514,0.0080,-0.1560,1.2300,-7.6180,25.4500,-46.3660,33.8900
0.0516,0.0080,-0.1590,1.2140,-5.3590,28.7330,-44.8550,33.9400
0.0518,0.0020,-0.1190,1.1760,-5.0530,29.7400,-42.8700,33.9900
0.0520,0.0150,-0.0820,1.1500,-4.3360,29.6790,-43.1910,33.8900
0.0521,0.0170,-0.0570,1.1260,-2.0310,27.5110,-45.1300,33.9400
0.0523,0.0130,-0.0720,1.1330,1.3890,24.5190,-45.7250,33.8900
0.0525,0.0090,-0.0940,1.1320,3.6950,20.9770,-47.1450,33.9400
0.0527,0.0070,-0.1170,1.1400,3.0990,17.4660,-46.5040,33.8500
0.0529,-0.0040,-0.1390,1.1250,-1.0230,16.0000,-45.5110,33.8900
0.0530,0.0010,-0.1350,1.1350,-5.1300,15.1300,-45.3590,33.8500
0.0532,0.0050,-0.1190,1.1880,-4.1530,16.2440,-43.2670,33.9900
0.0534,0.0110,-0.1150,1.2130,-4.6720,17.0990,-41.9690,33.8900
0.0536,0.0270,-0.1030,1.2310,-5.6790,19.5270,-40.2600,33.9400
0.0538,0.0410,-0.0870,1.1990,-5.4350,22.0610,-40.0920,33.9900
0.0540,0.0450,-0.0870,1.1690,-1.9690,22.7790,-41.7100,33.9400
0.0542,0.0430,-0.0860,1.1640,1.9690,22.1370,-41.6030,33.9400
0.0543,0.0270,-0.0830,1.1710,-0.6720,20.6110,-43.1150,33.8900
0.0545,0.0130,-0.0880,1.1720,-0.7180,19.2980,-42.9160,33.9400
0.0547,0.0100,-0.0850,1.1830,-0.7330,19.8470,-43.8020,33.8900
0.0550,0.0140,-0.0810,1.1630,-1.4200,19.8320,-41.3280,33.9400
0.0562,0.0280,-0.0830,1.1470,-1.7250,20.2600,-42.5190,33.9400
0.0566,0.0340,-0.0940,1.1330,1.9240,16.9770,-43.6340,33.9900
0.0570,0.0410,-0.0960,1.1640,0.6110,16.1980,-45.5730,33.9400
0.0573,0.0310,-0.0920,1.1870,-3.2210,14.0460,-45.2980,33.9400
0.0577,0.0300,-0.0920,1.2120,-5.1910,15.3130,-45.4810,33.8900
0.0580,0.0210,-0.0920,1.2030,-3.7860,16.1830,-45.8020,33.9400
0.0584,0.0330,-0.0910,1.2050,1.7250,18.3510,-46.1830,33.8900
0.0588,0.0320,-0.1170,1.1900,5.4960,18.4580,-46.3210,33.9900
0.0591,0.0350,-0.1250,1.2000,6.3050,17.6950,-45.6790,33.9400
0.0594,0.0410,-0.1290,1.1940,6.0610,17.1150,-45.4350,33.9900
0.0598,0.0470,-0.1510,1.2040,7.0380,17.6340,-46.3970,34.0400
0.0602,0.0410,-0.1290,1.2020,3.2370,18.5500,-44.2600,33.9400
0.0610,0.0680,-0.0430,1.1570,-1.6950,16.2900,-40.8550,33.9400
0.0613,0.0900,-0.0380,1.1570,-5.2820,17.0230,-42.6110,33.9400
0.0616,0.0950,-0.0440,1.1790,-7.5880,15.5730,-45.8780,33.9400
0.0619,0.0960,-0.0500,1.1950,-0.4580,15.2520,-47.9540,33.8500
0.0622,0.0910,-0.0670,1.2310,6.1530,16.0310,-45.8170,33.8000
0.0624,0.0940,-0.0840,1.2420,1.5420,19.4200,-44.5040,33.8900
0.0681,0.0990,-0.0830,1.2320,-4.5190,23.9240,-45.3590,33.9400
0.0805,0.0890,-0.0730,1.2320,-6.0760,28.1370,-45.2210,33.8900
0.0871,0.1000,-0.0520,1.1960,-3.1760,30.0310,-44.3660,34.0400
0.0994,0.0980,-0.0470,1.1790,0.4890,29.6790,-44.5650,33.9400
0.1050,0.0840,-0.0630,1.1710,3.2820,27.3740,-45.6790,33.9900
0.1183,0.0940,-0.0640,1.1720,-0.0150,25.6640,-46.4270,33.8500
0.1306,0.0830,-0.0610,1.1770,-0.2600,25.2210,-43.8780,33.9900
0.1373,0.0610,-0.0660,1.1930,0.7480,26.7020,-46.3510,34.0400
0.1496,0.0520,-0.0510,1.2070,2.6720,28.5500,-47.6790,33.8500
0.1565,0.0500,-0.0510,1.1720,-0.8400,29.6340,-49.7400,33.8900
0.1690,0.0410,-0.0480,1.1590,-0.1530,29.3130,-49.0840,33.9400
0.1808,0.0350,-0.0690,1.1300,0.2440,27.3440,-49.0080,33.8900
0.1879,0.0370,-0.0710,1.1160,-4.0310,24.9310,-49.2670,33.8900
0.2000,0.0420,-0.0780,1.1300,-9.4500,22.9920,-47.4050,33.9400
0.2069,0.0310,-0.0780,1.1320,-11.1150,20.8700,-48.0150,33.8900
0.2189,0.0340,-0.0640,1.1840,-9.4500,19.1910,-48.2900,33.9400
0.2311,0.0380,-0.0420,1.2150,-6.9770,19.9690,-47.6340,33.9400
0.2380,0.0470,-0.0500,1.2340,-3.0530,20.8400,-49.8630,33.9900
0.2501,0.0390,-0.0410,1.2500,-2.5800,22.8700,-47.8930,33.9400
0.2569,0.0750,-0.1010,1.2260,-1.8930,25.0990,-44.1680,33.9400
0.2693,0.0410,-0.1230,1.1900,4.8550,25.8020,-47.6790,33.9900
0.2815,0.0280,-0.1210,1.2080,2.7480,25.7710,-45.3440,33.9400
0.2888,0.0420,-0.1230,1.1820,-1.1760,25.7860,-44.6110,33.9900
0.3004,0.0530,-0.0990,1.1580,-2.7020,26.8400,-43.3740,33.8500
0.3074,0.0470,-0.0940,1.1440,-2.3510,27.0530,-43.7560,33.9400
0.3197,0.0640,-0.0530,1.1380,0.5340,22.9160,-44.8850,33.8900
0.3267,0.0600,-0.0360,1.1480,0.6870,19.1150,-42.5500,33.9400
0.3390,0.0600,-0.0320,1.1550,1.1450,17.0840,-43.8630,33.8900
0.3511,0.0650,-0.0130,1.1850,0.2440,17.4660,-45.2060,33.9400
0.3580,0.0510,-0.0250,1.1940,-1.2520,18.3660,-45.8780,33.9400
0.3702,0.0410,-0.0410,1.1850,-7.4200,18.1070,-48.4580,33.9900
0.3773,0.0440,-0.0580,1.1860,-4.3210,19.7560,-50.0000,33.9400
0.3891,0.0490,-0.0750,1.1760,-6.2750,19.8930,-49.7100,33.9400
0.4012,0.0530,-0.0820,1.1610,-8.4270,19.0690,-49.4500,33.9900
0.4080,0.0430,-0.0980,1.1370,-7.2670,19.0990,-48.5500,33.9400
0.4203,0.0330,-0.0950,1.1420,-7.1600,17.8020,-47.2520,33.9900
0.4274,0.0350,-0.1060,1.1430,-8.7480,16.3050,-45.8930,33.8000
0.4393,0.0320,-0.1190,1.1810,-8.9620,16.5800,-45.3740,33.8500
0.4516,0.0290,-0.1250,1.2000,-8.1370,19.7710,-42.1680,33.9900
0.4582,0.0330,-0.1070,1.1860,-10.9010,23.6640,-39.6950,33.9400
0.4704,0.0340,-0.0670,1.1770,-12.8240,26.5800,-40.1980,33.9400
0.4774,0.0370,-0.0070,1.1590,-12.1680,26.7180,-39.6340,33.9400
0.4893,0.0450,-0.0020,1.1190,-9.8780,23.6640,-41.7710,33.9400
0.5013,0.0450,0.0060,1.0870,-11.2980,19.1150,-45.4500,33.8900
0.5081,0.0530,-0.0180,1.0810,-10.6720,14.8400,-50.6560,34.0400
0.5203,0.0500,-0.0340,1.1030,-12.3510,11.8780,-55.8320,33.9400
0.5271,0.0270,-0.0660,1.1390,-12.4430,16.0310,-59.0380,33.9900
0.5389,0.0350,-0.0960,1.2230,-22.8700,10.2900,-58.3970,34.0400
0.5513,0.0360,-0.1170,1.2600,-18.4580,15.0230,-55.3130,33.8900
0.5579,0.0300,-0.1410,1.2580,-15.0230,24.2440,-53.7560,33.9900
0.5701,0.0370,-0.1730,1.2490,-17.2370,32.2440,-52.2290,34.0400
0.5770,0.0340,-0.1690,1.2090,-17.0380,30.3970,-48.9920,33.9900
0.5889,0.0410,-0.1260,1.1800,-12.8550,30.9770,-45.5880,33.9400
0.6010,0.0490,-0.0840,1.1420,-9.1910,30.8700,-45.7400,33.8500
0.6077,0.0490,-0.0730,1.1420,-6.8700,29.4660,-47.9080,33.8500
0.6201,0.0450,-0.0670,1.1530,-2.0920,23.7100,-50.3050,33.9400
0.6270,0.0490,-0.0700,1.1630,3.0690,19.9690,-52.2140,33.8900
0.6390,0.0420,-0.0870,1.1840,2.8550,21.2210,-55.4350,33.9900
0.6513,0.0350,-0.0940,1.2090,0.4890,23.4500,-52.5950,34.0400
0.6581,0.0310,-0.1080,1.2050,3.2820,25.0380,-49.8780,33.9900
0.6706,0.0450,-0.1070,1.1890,2.1680,25.7250,-50.5950,33.9400
0.6775,0.0530,-0.0910,1.1870,-0.2440,25.5570,-50.3050,33.8500
0.6894,0.0540,-0.1030,1.1780,0.3360,22.4120,-51.4200,33.9900
0.6968,0.0370,-0.1040,1.1930,9.1300,28.4430,-52.3970,33.9400
0.7086,0.0250,-0.1150,1.2050,-0.5950,25.2210,-54.5340,33.9900
0.7208,0.0130,-0.1150,1.2080,1.1600,28.7940,-53.8470,33.9900
0.7277,-0.0060,-0.1030,1.2080,2.4270,29.9080,-51.8020,33.9400
0.7400,-0.0090,-0.1100,1.1940,2.4580,30.6110,-49.9390,33.9900
0.7467,-0.0140,-0.1140,1.1750,4.1220,28.2140,-49.3740,33.9400
0.7589,-0.0180,-0.1290,1.1580,9.9080,26.4120,-47.7860,33.9900
0.7710,-0.0160,-0.1100,1.1660,14.3660,22.2140,-46.4890,34.0800
0.7777,-0.0030,-0.1120,1.1690,11.4660,20.2750,-46.1370,33.8500
0.7900,-0.0070,-0.1300,1.1710,6.5340,18.9310,-47.8780,33.8900
0.7969,-0.0090,-0.1310,1.1970,5.6950,19.7400,-49.9080,34.0400
0.8089,-0.0010,-0.1160,1.2100,2.7330,20.7630,-46.0150,34.0400
0.8210,0.0020,-0.1050,1.1870,5.9690,21.2670,-45.4500,33.8900
0.8283,0.0060,-0.0860,1.1890,8.5650,21.2370,-45.1450,33.8500
0.8402,0.0190,-0.0710,1.1930,7.7560,21.0690,-44.7330,33.8900
0.8471,0.0250,-0.0590,1.1940,3.8630,20.4580,-44.7790,33.9900
0.8596,0.0290,-0.0560,1.1650,0.0760,21.9080,-47.5730,33.9400
0.8655,0.0380,-0.0510,1.1770,-2.6110,20.5650,-48.7630,33.8900
0.8787,0.0320,-0.0570,1.1800,-4.8400,22.1830,-50.0000,33.9400
0.8908,0.0320,-0.0560,1.1790,-6.2440,22.3820,-49.9850,33.9900
0.8977,0.0220,-0.0530,1.1650,-8.0760,22.5040,-49.7100,33.9900
0.9098,0.0110,-0.0530,1.1490,-4.4890,21.6950,-48.4580,33.9400
0.9168,0.0160,-0.0660,1.1360,-0.8240,19.7400,-47.3440,33.8900
0.9289,0.0050,-0.0810,1.1390,-2.2900,18.9470,-46.5800,33.9400
0.9407,0.0040,-0.0820,1.1260,-7.6950,19.1600,-46.6720,33.9400
0.9479,0.0180,-0.0750,1.1110,-12.9160,17.3590,-48.0920,33.9900
0.9597,0.0160,-0.0630,1.1260,-10.3050,18.0150,-51.2980,33.9400
0.9668,0.0290,-0.0580,1.1510,-9.3890,15.0990,-53.3280,33.9900
0.9788,0.0210,-0.0650,1.1570,-6.0760,14.5040,-53.2370,34.0800
0.9906,0.0170,-0.0890,1.1700,-1.3280,12.3210,-53.6790,33.9400
0.9980,0.0270,-0.1020,1.1960,0.1070,12.3660,-51.8630,33.8900
1.0100,0.0400,-0.1040,1.2120,-0.1980,18.1220,-51.4960,33.9400
1.0166,0.0480,-0.1060,1.2090,-3.4050,19.7860,-50.4120,33.9400
1.0290,0.0490,-0.1070,1.1980,-3.0690,21.0230,-50.0310,33.8900
1.0409,0.0370,-0.1060,1.1830,0.3050,20.2140,-50.5650,33.9400
1.0479,0.0310,-0.0980,1.1700,4.9310,21.0690,-50.4580,33.8900
1.0602,0.0390,-0.0830,1.1520,6.0310,21.2520,-52.3660,33.9400
1.0671,0.0510,-0.0620,1.1500,1.3590,20.1830,-56.0150,33.9400
1.0792,0.0590,-0.0360,1.1430,1.4500,19.8470,-59.3740,33.9900
1.0850,0.0750,-0.0130,1.1540,2.8700,18.6410,-60.3970,33.9400
1.0983,0.0610,-0.0280,1.1590,4.9770,19.7400,-59.9390,33.9400
1.1107,0.0370,-0.0800,1.1850,3.5570,20.9160,-60.2900,33.8900
1.1176,0.0260,-0.1010,1.2070,-2.0000,22.6560,-57.9080,33.8500
1.1299,0.0190,-0.1260,1.2100,-5.7100,24.1370,-56.7790,33.9900
1.1367,0.0270,-0.1250,1.2020,-6.9770,27.2670,-55.3890,33.9900
1.1488,0.0400,-0.1100,1.1970,-6.7180,28.3510,-54.5950,33.9400
1.1610,0.0360,-0.0940,1.1830,-4.4120,27.5730,-54.5500,33.9900
1.1680,0.0330,-0.1020,1.1770,-1.0080,25.4960,-54.4430,33.9400
1.1802,0.0350,-0.0930,1.1800,4.0310,24.4730,-53.3740,33.9400
1.1871,0.0320,-0.0880,1.1900,3.4500,25.5270,-51.2520,33.9400
1.1992,0.0400,-0.0770,1.2000,6.3660,26.0460,-49.9540,33.9400
1.2115,0.0390,-0.0830,1.1800,8.0610,26.7330,-51.8170,33.9900
1.2186,0.0420,-0.0660,1.1640,7.2210,26.3210,-53.9390,33.9900
1.2313,0.0290,-0.0510,1.1410,4.9470,24.1980,-54.8850,33.9400
1.2373,0.0350,-0.0640,1.1270,6.0460,22.7330,-53.8470,33.8900
1.2499,0.0320,-0.0680,1.1510,4.7480,20.1530,-53.9850,33.9400
1.2570,0.0400,-0.0910,1.1640,3.9540,19.6340,-52.9310,33.9400
1.2692,0.0400,-0.0870,1.1850,1.0080,21.2820,-52.8400,33.8900
1.2813,0.0460,-0.0690,1.1880,-1.9390,23.1300,-52.8550,33.9400
1.2881,0.0470,-0.0480,1.1710,-5.0990,25.2520,-52.9920,33.9900
1.3002,0.0320,-0.0400,1.1830,-7.8170,24.4120,-54.4120,33.8900
1.3069,0.0230,-0.0420,1.1690,-9.0080,21.8930,-55.3590,33.9400
1.3194,0.0080,-0.0480,1.1780,-6.2140,20.0920,-56.2440,33.8900
1.3315,0.0110,-0.0470,1.2030,-3.6640,18.7180,-56.3820,33.9400
1.3384,0.0110,-0.0620,1.2190,1.6790,18.2140,-54.8550,33.9400
1.3505,0.0020,-0.0870,1.2030,1.8780,19.2060,-57.1150,33.8900
1.3576,-0.0120,-0.1020,1.2030,3.4050,19.4660,-55.9690,33.9400
1.3697,-0.0050,-0.0830,1.1650,-0.5340,18.7940,-58.0460,33.8900
1.3752,-0.0070,-0.0680,1.1280,-3.6180,15.9690,-57.5730,34.0400
1.3883,-0.0010,-0.0820,1.1280,2.8400,13.4200,-56.2440,33.9400
1.4006,0.0200,-0.0800,1.1580,2.7480,11.3890,-58.0310,33.9900
1.4077,0.0230,-0.0780,1.2050,-1.7250,10.8700,-59.3280,34.0400
1.4199,0.0270,-0.0720,1.2060,-1.8470,14.4580,-59.5570,33.8900
1.4264,0.0100,-0.0830,1.2050,-1.3280,17.1150,-59.4960,33.9900
1.4386,-0.0080,-0.1000,1.2020,1.2820,18.5950,-57.7710,33.9400
1.4508,-0.0080,-0.1010,1.2230,4.3510,20.1370,-52.7180,33.9900
1.4577,0.0000,-0.0980,1.1920,-0.1370,22.9470,-48.6110,33.8500
1.4698,0.0210,-0.0720,1.1380,-5.1150,20.9770,-46.6260,33.9400
1.4772,0.0460,-0.0500,1.1440,-6.8850,19.4350,-49.2370,33.9900
1.4890,0.0230,-0.0570,1.1580,0.4120,24.4120,-46.7480,33.9400
1.5009,0.0470,-0.0390,1.1530,0.8090,19.7400,-47.2210,33.8900
1.5079,0.0430,-0.0400,1.1520,1.8630,19.4810,-50.0310,34.0400
1.5205,0.0430,-0.0350,1.1640,1.4050,18.8090,-52.3970,34.0400
1.5273,0.0380,-0.0610,1.1470,2.6110,18.3360,-52.7480,33.9900
1.5396,0.0200,-0.0670,1.1860,7.5420,18.4580,-51.5570,33.9400
1.5456,0.0220,-0.0840,1.1870,5.3890,17.9080,-51.9540,33.9900
1.5584,0.0250,-0.0830,1.1900,1.2520,19.3740,-50.8400,33.9900
1.5708,0.0160,-0.0730,1.1890,0.4730,24.7480,-51.7560,33.8500
1.5780,0.0090,-0.0930,1.2060,-4.7330,21.8320,-49.2670,33.9900
1.5900,0.0310,-0.0790,1.1480,4.1370,23.8320,-49.2520,33.8500
1.5970,0.0370,-0.0490,1.1490,3.9080,17.5730,-48.0920,33.8500
1.6093,0.0210,-0.0700,1.1460,13.6030,17.2520,-47.3280,33.8000
1.6213,0.0150,-0.0390,1.1750,17.3890,14.9920,-48.5800,33.8500
1.6282,0.0010,-0.0400,1.1930,14.3820,16.2900,-55.3280,33.9900
1.6402,0.0450,0.0230,1.1870,1.7100,18.8700,-62.0310,33.8500
1.6472,0.0940,0.0610,1.0960,-21.0990,21.7860,-72.9310,33.9400
1.6596,0.1120,0.0590,1.0590,-15.9390,16.2140,-76.8400,33.9900
1.6714,0.0680,-0.0140,1.1190,7.5880,9.1910,-76.5800,33.8500
1.6787,0.0410,-0.1130,1.1630,20.6560,5.8470,-70.1220,34.0400
1.6907,0.0330,-0.1560,1.1970,10.3360,7.7100,-53.3440,33.9900
1.6977,0.0140,-0.1880,1.2360,-6.1370,17.8320,-55.8630,33.9400
1.7101,0.0200,-0.1320,1.2280,-23.6030,25.4810,-51.1300,33.8900
1.7167,0.0310,-0.0990,1.2000,-29.1760,29.2210,-47.1760,33.9400
1.7290,0.0390,-0.0610,1.1840,-21.0530,26.3510,-45.1300,33.9400
1.7407,0.0580,-0.0310,1.1750,-6.3970,23.0530,-42.4270,33.8900
1.7477,0.0610,-0.0510,1.1680,2.3820,22.2440,-40.8850,33.9400
1.7605,0.0590,-0.0290,1.1870,-0.3820,20.4120,-41.9390,33.8900
1.7670,0.0730,-0.0460,1.1800,2.7180,21.1450,-42.2900,34.0400
1.7791,0.0740,-0.0280,1.1990,2.2750,22.3050,-43.1450,33.9400
1.7912,0.0770,-0.0120,1.2000,-2.1680,22.6110,-41.4350,33.8900
1.7980,0.0740,-0.0300,1.1860,0.4580,22.6410,-42.3360,33.8500
1.8102,0.0660,-0.0320,1.1800,-0.9010,23.2670,-43.6640,33.9400
1.8173,0.0660,-0.0260,1.1910,-8.0760,23.0080,-44.8090,33.9900
1.8294,0.0580,-0.0260,1.1710,-9.9390,23.7100,-47.0080,33.9400
1.8415,0.0400,-0.0210,1.1830,-7.5270,22.5040,-48.3210,33.8900
1.8482,0.0390,-0.0360,1.2010,-7.4810,22.8240,-49.5730,33.9900
1.8607,0.0240,-0.0380,1.2040,-11.8020,24.3970,-50.5190,33.9400
1.8676,0.0260,-0.0390,1.1840,-9.6180,25.4200,-46.0000,33.8900
1.8797,0.0260,-0.1080,1.1340,1.6030,22.4430,-41.9080,33.8500
1.8857,0.0420,-0.1220,1.1270,4.2440,17.6030,-39.4810,33.9400
1.8986,0.0490,-0.0900,1.1460,3.0080,13.7560,-34.3360,33.8900
1.9108,0.0520,-0.1190,1.1670,13.1300,12.4730,-28.9920,33.8500
1.9177,0.0290,-0.1570,1.1900,13.0990,13.8320,-36.9770,33.9900
1.9298,0.0320,-0.1180,1.2150,-1.6790,16.1370,-36.8400,33.9900
1.9369,0.0360,-0.1000,1.2270,-5.4350,20.2440,-37.6640,33.9400
1.9486,0.0420,-0.0650,1.1930,-1.2060,20.5340,-36.0760,33.8900
1.9612,0.0510,-0.0480,1.1990,0.3210,20.5800,-35.8780,33.9400
1.9683,0.0620,-0.0080,1.1660,3.9690,18.9160,-36.2440,33.9400
1.9802,0.0720,-0.0070,1.1580,2.0000,7.3890,-41.1300,33.9900
1.9873,0.0330,-0.0100,1.2320,-0.2600,27.8470,-43.8170,33.9400
1.9993,0.0440,0.0080,1.2000,-3.6490,16.2290,-43.1600,33.8900
2.0115,0.0440,-0.0110,1.1770,-0.8400,20.1070,-47.8930,33.9900
2.0187,0.0420,-0.0170,1.1470,-0.9920,17.1600,-52.1830,34.0400
2.0306,0.0380,-0.0490,1.1350,5.8930,12.5040,-54.3050,33.9900
2.0373,0.0340,-0.1150,1.1450,12.7790,10.1680,-55.8320,33.9400
2.0500,0.0310,-0.1650,1.1740,12.5340,8.7630,-53.6490,34.0400
2.0564,0.0190,-0.1770,1.2110,13.6490,7.7560,-50.9770,33.9900
2.0689,0.0170,-0.1740,1.2670,13.1600,12.9010,-47.4200,33.9400
2.0809,0.0390,-0.1130,1.2950,0.1680,22.0150,-45.0990,33.8900
2.0883,0.0520,-0.0800,1.2470,-12.3510,25.3590,-42.0460,33.9400
2.0999,0.0420,-0.0420,1.1870,-16.2600,34.8090,-39.5420,33.9400
2.1067,0.0880,-0.0010,1.1360,-20.9310,25.6950,-37.6950,33.8900
2.1189,0.1080,0.0200,1.1030,-13.0380,23.0530,-33.2370,34.0400
2.1310,0.1200,0.0390,1.1010,-5.8930,17.8930,-41.0840,33.9400
2.1382,0.1190,0.0680,1.1230,-6.2600,13.7100,-45.8780,33.9900
2.1503,0.1190,0.0720,1.1260,-5.0380,12.4430,-54.1530,33.8500
2.1569,0.0740,0.0030,1.1510,1.8320,10.9310,-57.9540,33.9900
2.1696,0.0590,-0.0730,1.1720,1.5110,11.6340,-61.7860,33.8900
2.1751,0.0360,-0.1160,1.1940,5.1910,11.0690,-58.6560,33.9400
2.1885,0.0270,-0.1060,1.2310,3.3590,12.4580,-54.9620,33.8900
2.2007,0.0310,-0.1150,1.2450,-2.9770,16.2600,-51.6950,33.8500
2.2081,0.0190,-0.1020,1.2400,-5.5420,18.6560,-47.7860,33.8500
2.2200,0.0200,-0.1100,1.2320,-0.2140,19.7400,-43.6950,33.9900
2.2267,0.0320,-0.1160,1.2030,0.2900,21.6030,-42.7940,33.9400
2.2392,0.0350,-0.1160,1.1950,-3.1600,22.4120,-42.3050,33.8900
2.2511,0.0620,-0.1100,1.1520,-9.9080,23.5730,-43.7250,33.9900
2.2579,0.0550,-0.0890,1.1570,-14.3510,23.0990,-44.5800,33.8500
2.2701,0.0690,-0.0710,1.1580,-17.8170,25.6950,-44.3050,33.9900
2.2772,0.0700,-0.0300,1.1390,-21.2210,26.7020,-41.3740,33.9400
2.2892,0.0860,-0.0410,1.0960,-10.9770,23.5880,-37.3740,33.9400
2.3009,0.0610,-0.0790,1.1440,0.3360,18.2600,-35.2980,33.8900
2.3075,0.0510,-0.1200,1.2440,14.5950,19.7250,-26.5950,33.9400
2.3200,0.0500,-0.1390,1.3250,12.8400,31.7250,-17.1150,33.8900
2.3265,0.0450,-0.1350,1.3140,-2.7480,39.1300,-11.8170,33.8900
2.3389,0.0300,-0.1100,1.2540,-10.5950,47.2820,-10.1680,33.9400
2.3507,0.0660,0.0050,1.1550,-20.3820,49.2670,-15.0840,33.8900
2.3579,0.0990,0.0870,1.0340,-25.3440,43.2820,-22.5800,33.9400
2.3699,0.1460,0.1230,0.9070,-18.6560,21.2980,-38.0610,33.9400
2.3769,0.0960,0.0900,0.9800,3.6490,13.4660,-52.1370,33.9900
2.3890,0.0550,0.0090,1.0710,27.3890,-0.7480,-58.3970,33.9400
2.4014,0.0060,-0.0830,1.1780,31.4960,0.1070,-64.5650,33.9900
2.4083,-0.0150,-0.1280,1.2390,17.0080,3.6340,-63.6340,33.9400
2.4204,-0.0250,-0.1450,1.2570,-0.7020,9.7250,-58.9160,33.9400
2.4274,-0.0200,-0.1610,1.2390,-3.3280,12.6260,-51.8630,33.8900
2.4394,0.0160,-0.1430,1.2650,-2.9470,17.8470,-47.3740,33.9400
2.4450,0.0280,-0.0960,1.2770,-3.0380,25.2980,-45.7710,33.8500
2.4586,0.0320,-0.0750,1.2590,-2.5650,30.4580,-43.9850,33.8900
2.4707,0.0200,-0.0840,1.2290,-7.0380,33.2670,-42.4270,33.9400
2.4775,0.0300,-0.0780,1.1800,-13.5270,33.2670,-41.1760,33.9900
2.4896,0.0600,-0.0760,1.1270,-9.2060,31.7560,-40.0310,33.9900
2.4965,0.0470,-0.0540,1.1400,2.1530,25.5570,-39.1600,33.9400
2.5087,0.0410,-0.0510,1.1810,9.9850,25.2670,-39.8020,33.8900
2.5210,0.0430,-0.0260,1.1750,13.7860,25.1300,-43.0230,33.9400
2.5281,0.0310,-0.0430,1.1810,14.1680,27.8170,-45.0690,33.9400
2.5401,0.0170,-0.0730,1.1470,10.3050,26.9310,-43.8930,33.9900
2.5468,0.0320,-0.0760,1.1290,5.6490,28.3360,-42.5800,33.9400
2.5588,0.0450,-0.0680,1.1100,1.2060,26.3210,-41.8020,33.8500
2.5712,0.0490,-0.0600,1.1570,5.5570,22.1980,-41.4660,33.9900
2.5781,0.0370,-0.0560,1.1650,8.3510,24.9620,-40.8090,33.9400
2.5904,0.0380,-0.0400,1.1980,-5.2210,26.1530,-47.3890,33.9900
2.5971,0.0280,-0.0310,1.2010,-9.5110,27.4660,-44.7790,34.0400
2.6094,0.0330,-0.0230,1.1880,-6.8850,27.5270,-43.1760,33.9400
2.6213,0.0240,-0.0010,1.1890,-7.4660,27.0990,-41.6790,33.8900
2.6286,0.0500,-0.0000,1.1710,-3.8630,22.8700,-41.0080,33.8500
2.6406,0.0520,-0.0110,1.1610,11.6640,26.0310,-38.8240,33.8500
2.6474,0.0330,-0.0360,1.1540,9.8320,21.7560,-41.7860,33.8900
2.6598,0.0430,-0.0330,1.1690,7.4350,21.8930,-43.7100,34.0400
2.6664,0.0580,-0.0260,1.1670,1.8930,22.7790,-42.6410,33.8900
2.6789,0.0620,-0.0270,1.1770,-2.8400,22.9620,-44.8400,33.9900
2.6909,0.0660,-0.0130,1.2010,-9.1450,24.6720,-50.7180,33.9400
2.6977,0.0610,-0.0120,1.2140,-9.7250,26.5340,-50.7330,33.9900
2.7102,0.0480,0.0160,1.2090,-10.4730,28.3360,-53.0230,33.9400
2.7166,0.0470,-0.0080,1.1680,-4.5340,29.5880,-50.9310,34.0400
2.7290,0.0460,-0.0200,1.1370,3.5420,24.4580,-50.5950,33.8500
2.7412,0.0350,-0.0430,1.1310,11.7400,22.5340,-44.7630,33.8500
2.7479,0.0050,-0.1040,1.1100,20.2750,17.5880,-37.5110,33.9900
2.7602,-0.0130,-0.0850,1.1210,23.4200,18.3210,-31.9540,33.8900
2.7669,-0.0130,-0.0970,1.1210,20.9770,14.3820,-26.1980,33.8500
2.7793,-0.0300,-0.0390,1.1560,3.5110,16.2600,-24.9770,33.8900
2.7912,0.0090,-0.0010,1.1690,-13.7100,17.9540,-26.9310,33.9400
2.7983,0.0570,0.0180,1.1740,-19.4200,17.7400,-36.9620,33.8500
2.8102,0.0610,0.0530,1.1900,-12.3510,15.7710,-40.3050,33.8900
2.8171,0.0410,-0.0060,1.1830,5.8780,16.1530,-44.9770,33.9400
2.8294,0.0420,-0.0010,1.2230,1.5270,19.8930,-51.0380,33.9900
2.8413,0.0640,0.0010,1.2060,-2.8400,20.1680,-46.1830,33.9900
2.8484,0.0310,-0.0430,1.2000,-5.2060,18.3210,-49.4660,33.8500
2.8604,0.0300,-0.0190,1.2400,-16.7630,19.8470,-54.0920,33.9900
2.8675,0.0200,-0.0360,1.2480,-20.1530,23.6640,-57.4500,33.8500
2.8796,-0.0010,-0.0600,1.2380,-17.4050,25.7250,-58.1980,33.9400
2.8914,-0.0390,-0.1030,1.2230,-16.2600,27.1450,-56.6560,33.8900
2.8982,-0.0510,-0.1040,1.2040,-9.9080,29.2060,-52.0610,33.9400
2.9103,-0.0860,-0.1140,1.1910,-10.3970,29.8930,-48.8850,33.8900
2.9169,-0.0900,-0.0880,1.1600,-15.6030,30.7790,-50.3050,33.8500
2.9289,-0.0730,-0.0630,1.1090,-12.3510,27.1910,-48.5500,33.9400
2.9407,-0.0720,-0.0490,1.0770,-10.3210,21.9690,-51.7710,33.8900
2.9473,-0.0710,-0.0490,1.0740,-3.4660,15.5880,-52.8700,33.9400
2.9596,-0.0810,-0.0790,1.1090,3.9690,11.0380,-54.1370,33.9400
2.9667,-0.0910,-0.0960,1.1430,7.5570,5.2670,-53.0690,33.9900
2.9786,-0.0830,-0.1030,1.1780,6.0310,7.5880,-51.9690,33.9400
2.9911,-0.0700,-0.1060,1.1730,3.0380,8.8240,-49.6490,33.8900
2.9981,-0.0800,-0.1040,1.1850,-1.8930,9.5270,-46.9770,33.8900
3.0100,-0.0630,-0.0780,1.2140,-6.5800,13.3280,-44.9010,33.9400
3.0170,-0.0290,-0.0560,1.1990,-8.5800,16.8850,-45.0380,33.9900
3.0286,-0.0220,-0.0380,1.2030,-5.4810,18.3970,-44.7940,34.0400
3.0411,0.0080,-0.0120,1.1800,-4.4730,18.1530,-45.0690,33.9400
3.0478,0.0070,-0.0200,1.1610,2.8240,20.2900,-45.2370,33.9400
3.0601,-0.0070,-0.0540,1.1400,2.7180,17.4810,-45.3740,33.8500
3.0670,-0.0310,-0.0770,1.1470,8.2140,18.0150,-45.5570,33.8900
3.0790,-0.0270,-0.0540,1.1600,5.1910,18.9620,-44.3210,33.9900
3.0913,-0.0220,-0.0410,1.1580,-0.6260,21.4660,-45.1150,33.9400
3.0982,-0.0290,-0.0480,1.1500,-2.5340,21.2060,-46.2600,33.8900
3.1104,-0.0380,-0.0710,1.1460,0.2900,20.3050,-47.8630,33.9400
3.1170,-0.0410,-0.0750,1.1650,3.2670,20.9770,-48.4730,33.8500
3.1289,-0.0430,-0.0890,1.1750,3.0690,21.8930,-47.5110,33.9900
3.1413,-0.0470,-0.0920,1.1760,2.0310,21.6030,-45.9080,34.0400
3.1483,-0.0520,-0.1370,1.1660,-2.1070,22.4890,-44.3660,33.9900
3.1602,-0.0550,-0.1300,1.1850,-7.8170,23.3890,-44.2900,33.8900
3.1670,-0.0460,-0.1160,1.1990,-6.3210,23.8020,-42.4580,33.9400
3.1791,-0.0490,-0.1280,1.2130,-2.5800,24.7480,-40.8090,33.9900
3.1911,-0.0550,-0.1550,1.2370,3.9080,26.0610,-38.5340,33.9400
3.1977,-0.0720,-0.1610,1.2430,4.3820,28.9160,-37.4500,34.0400
3.2100,-0.0700,-0.1450,1.2140,-1.8780,31.5570,-37.7860,33.9900
3.2170,-0.0610,-0.1040,1.2200,-11.4660,33.1600,-40.2290,33.9400
3.2287,-0.0460,-0.0630,1.1900,-19.4500,32.9010,-43.5730,33.8900
3.2408,-0.0340,-0.0020,1.2020,-17.6030,32.1530,-46.2290,33.9400
3.2474,-0.0080,0.0160,1.1780,-15.4500,30.9160,-50.8850,33.9400
3.2596,-0.0140,0.0010,1.1600,-8.0460,27.2520,-54.0610,33.9900
3.2652,-0.0290,-0.0560,1.1650,7.8930,21.9390,-54.1070,33.9400
3.2785,-0.0470,-0.1340,1.1950,21.5110,19.0380,-48.9160,33.9900
3.2905,-0.0980,-0.1870,1.2490,22.0920,20.5800,-46.3660,33.9900
3.2973,-0.1240,-0.2180,1.2860,12.4890,23.0530,-42.1680,34.0400
3.3096,-0.1410,-0.2060,1.3190,-1.2520,29.4050,-36.0920,33.8900
3.3215,-0.1300,-0.1820,1.3090,-19.5420,38.0460,-34.2900,33.9400
3.3282,-0.1230,-0.1330,1.2630,-31.9080,43.9390,-32.3820,33.9400
3.3403,-0.0980,-0.0790,1.2030,-35.3280,45.7560,-29.2980,33.8900
3.3467,-0.1040,-0.0680,1.1680,-32.4580,44.9770,-33.3740,33.9400
3.3589,-0.0850,-0.0320,1.1200,-25.6490,38.8240,-33.4810,33.8900
3.3708,-0.0810,-0.0300,1.1090,-13.9390,30.4580,-31.5730,33.9400
3.3774,-0.0760,-0.0590,1.0970,-3.2980,23.2210,-37.1300,33.9400
3.3896,-0.0800,-0.0540,1.1330,-2.0760,18.0000,-39.1600,33.9900
3.3953,-0.0790,-0.0620,1.1550,-2.9920,16.4430,-39.6950,33.9400
3.4085,-0.0970,-0.0670,1.2030,-1.4350,17.7250,-39.6640,33.8500
3.4205,-0.0800,-0.0730,1.2350,-6.1980,22.9160,-38.5800,33.8000
3.4272,-0.0910,-0.0710,1.2400,-17.3740,30.1070,-38.5650,33.9400
3.4394,-0.0720,-0.0710,1.2340,-28.5190,36.9620,-39.2520,33.9900
3.4512,-0.0680,-0.0730,1.1770,-36.5340,42.5500,-38.6870,33.8500
3.4582,-0.0850,-0.0870,1.1520,-34.8850,43.2060,-38.4120,33.9400
3.4700,-0.0990,-0.1330,1.1080,-21.2980,41.8020,-38.7630,33.8900
3.4765,-0.1130,-0.1520,1.0860,-6.1980,37.1450,-35.5880,33.9400
3.4887,-0.1360,-0.1590,1.0720,-0.8090,32.7480,-29.9690,33.8900
3.5008,-0.1520,-0.1650,1.0420,0.5950,27.2670,-23.2060,33.9400
3.5077,-0.1380,-0.1460,1.0680,-2.5800,24.3360,-19.9540,33.9400
3.5198,-0.1030,-0.1120,1.0970,-6.0760,22.3050,-18.1980,33.9900
3.5267,-0.0910,-0.0840,1.1460,-13.6340,20.5800,-17.4660,33.8500
3.5387,-0.0960,-0.0650,1.1580,-19.4500,23.7860,-16.6260,33.9400
3.5506,-0.0910,-0.0380,1.1420,-15.9850,24.0920,-19.6340,33.9900
3.5575,-0.0970,-0.0390,1.1480,-13.1450,27.8470,-23.3440,33.9400
3.5690,-0.0980,-0.0550,1.1360,-11.2210,30.8400,-26.9470,33.8900
3.5810,-0.1190,-0.0640,1.1170,-9.6180,30.1370,-25.4200,33.9900
3.5878,-0.1050,-0.0930,1.0970,-12.2140,30.7180,-26.6870,33.9400
3.5999,-0.1130,-0.1020,1.0760,-15.4810,28.5190,-26.4120,33.8900
3.6067,-0.1320,-0.1350,1.0850,-20.0150,28.8090,-23.7860,33.8500
3.6183,-0.1160,-0.1650,1.0380,-12.8700,22.2600,-19.6340,33.8500
3.6304,-0.0900,-0.1860,1.0350,-0.9920,18.6870,-16.3820,33.9400
3.6372,-0.0700,-0.1850,1.0760,-0.4120,15.2820,-13.7400,33.9400
3.6493,-0.0540,-0.1680,1.1240,-8.5500,12.3210,-10.3510,33.9900
3.6615,-0.0300,-0.1340,1.1460,-17.0530,15.0380,-8.5500,33.9900
3.6683,0.0010,-0.0980,1.1450,-22.1070,18.1370,-9.3590,33.8500
3.6803,0.0160,-0.0740,1.1520,-21.9690,16.1370,-13.2060,33.9900
3.6870,0.0530,-0.0350,1.1640,-9.6790,14.0920,-16.0310,33.9400
3.6995,0.0450,-0.0460,1.1960,1.2210,11.3890,-22.9010,33.9400
3.7115,0.0370,-0.0770,1.2300,10.5340,9.5730,-29.4660,33.8900
3.7185,0.0120,-0.1130,1.2710,16.0000,11.1760,-32.8700,33.9400
3.7306,-0.0230,-0.1540,1.3190,11.3440,15.9390,-34.8700,33.9900
3.7372,-0.0520,-0.1710,1.3440,4.0760,25.5730,-32.5500,33.8900
3.7496,-0.0720,-0.1720,1.3270,1.6490,28.8240,-29.3740,33.8500
3.7551,-0.0730,-0.1600,1.2920,4.8240,34.4430,-25.4810,33.8900
3.7685,-0.0760,-0.1500,1.2870,9.1910,40.6410,-22.1830,33.9400
3.7809,-0.0720,-0.1300,1.2710,5.4660,44.9010,-20.1070,33.9400
3.7875,-0.0690,-0.0960,1.2550,5.3890,47.7710,-16.4730,33.9900
3.8000,-0.0670,-0.0960,1.2080,7.8020,47.8630,-18.4430,33.9400
3.8068,-0.0700,-0.0780,1.2010,10.5950,45.3890,-18.9470,33.8900
3.8185,-0.0760,-0.0480,1.1580,7.0840,46.8240,-21.4050,33.9400
3.8308,-0.0920,-0.0310,1.1270,8.7790,45.4810,-22.1530,33.9400
3.8375,-0.1060,-0.0330,1.1020,11.6490,44.9310,-23.4660,33.8900
3.8499,-0.1340,-0.0640,1.1130,10.7790,42.8090,-23.6490,33.9400
3.8569,-0.1410,-0.0750,1.1120,2.2440,40.6870,-21.4200,33.9900
3.8685,-0.1420,-0.0660,1.0860,-5.2520,41.8020,-18.3360,33.9900
3.8808,-0.1130,-0.0660,1.0000,-13.1300,42.5800,-9.2210,33.8500
3.8877,-0.0730,-0.0600,0.9540,-20.1680,34.7630,-4.9310,33.8900
3.8997,-0.0300,-0.0040,0.9870,-22.7330,22.5340,-6.2900,33.9400
3.9114,-0.0040,0.0520,1.0480,-17.8170,9.7710,-8.6410,33.9400
3.9185,0.0100,0.0910,1.1430,-14.4430,5.7100,-14.9160,33.8900
3.9308,0.0130,0.1060,1.2140,-11.6640,7.6790,-20.2140,33.8500
3.9379,0.0030,0.1010,1.2570,-4.5800,16.5340,-25.9850,33.9900
3.9500,-0.0040,0.0860,1.2900,-9.0990,24.1370,-31.4500,33.8500
3.9572,-0.0420,0.0570,1.2530,-13.6790,28.6110,-32.7180,33.9400
3.9688,-0.0830,-0.0130,1.1900,-12.2440,26.4430,-33.8630,33.8900
3.9808,-0.1010,-0.0720,1.1480,-12.3820,26.0310,-32.3660,33.8500
3.9876,-0.1050,-0.1170,1.1140,-14.7790,23.6180,-30.3210,33.9900
3.9997,-0.1060,-0.1590,1.1140,-12.7630,23.7710,-31.5730,34.0800
