Time,AX,AY,AZ,GX,GY,GZ,T
0.0000,0.1110,0.0210,1.1440,2.2750,23.2520,-45.4050,33.7500
0.0003,0.1160,0.0230,1.1460,5.5730,21.7860,-46.3210,33.8000
0.0005,0.1200,0.0260,1.1390,5.1910,22.5800,-48.3660,33.8500
0.0008,0.1170,0.0330,1.1650,-0.6720,21.8780,-52.4580,33.8000
0.0010,0.0860,0.0130,1.1710,2.5040,22.7480,-53.9390,33.8900
0.0013,0.0550,-0.0050,1.1910,-0.9770,23.7400,-55.5880,33.9400
0.0015,0.0440,-0.0250,1.1890,-4.8850,25.5270,-56.4430,33.8000
0.0017,0.0230,-0.0240,1.1870,-6.5650,25.6340,-56.9310,33.8500
0.0019,0.0110,-0.0360,1.1980,-5.7400,24.6560,-57.6790,33.8900
0.0022,0.0050,-0.0450,1.2020,-2.0610,23.6340,-57.5270,33.7500
0.0024,-0.0010,-0.0560,1.2170,-1.8930,26.0000,-57.3740,33.8500
0.0026,-0.0080,-0.0790,1.1940,0.3050,28.1680,-55.5420,33.8000
0.0028,0.0020,-0.0600,1.1980,-1.1760,25.1600,-53.2820,33.9400
0.0031,-0.0010,-0.0700,1.1710,-6.8700,22.2750,-50.0920,33.8500
0.0033,0.0040,-0.0570,1.1890,-8.6560,23.3890,-49.9080,33.8000
0.0035,0.0020,-0.0400,1.1930,-8.5500,22.5340,-49.4200,33.7500
0.0038,0.0200,-0.0280,1.1980,-8.5340,21.8780,-48.0610,33.8000
0.0040,0.0290,-0.0200,1.1900,-1.4960,18.1980,-43.9080,33.7500
0.0042,0.0170,-0.0280,1.2070,2.4730,19.6790,-41.5270,33.7500
0.0045,0.0280,-0.0110,1.2040,-2.8240,20.5650,-42.4430,33.8000
0.0047,0.0290,-0.0050,1.2120,-5.9240,22.0610,-43.2370,33.7500
0.0051,0.0390,0.0000,1.2160,-9.4960,24.8850,-43.4960,33.8000
0.0053,0.0450,0.0150,1.2030,-8.9770,25.6490,-42.3510,33.8500
0.0055,0.0330,-0.0150,1.1670,-4.5500,24.5340,-42.6410,33.8500
0.0058,0.0230,-0.0230,1.1760,-4.5190,24.7630,-42.3820,33.8000
0.0060,0.0100,-0.0300,1.1750,-3.1450,24.3210,-42.1680,33.8500
0.0062,0.0010,-0.0290,1.1760,-2.5040,23.3890,-41.7400,33.7100
0.0064,-0.0080,-0.0480,1.1920,-4.1220,22.7790,-42.4120,33.8900
0.0067,-0.0080,-0.0370,1.1930,-3.1910,23.2520,-40.5500,33.8500
0.0069,-0.0070,-0.0490,1.1850,1.4660,22.7790,-40.0460,33.8000
0.0071,-0.0050,-0.0540,1.1800,4.3660,22.4580,-40.4580,33.8500
0.0073,-0.0030,-0.0500,1.2120,3.3440,22.8850,-41.1760,33.7500
0.0075,0.0120,-0.0320,1.2140,-0.0460,23.0840,-44.6560,33.8000
0.0077,0.0100,-0.0380,1.2160,2.8090,21.7860,-38.8400,33.8500
0.0079,0.0150,-0.0320,1.2380,4.9160,21.6180,-40.3360,33.8000
0.0081,0.0240,-0.0120,1.2250,5.6950,21.4350,-36.7790,33.8500
0.0084,0.0310,-0.0160,1.2020,10.7330,20.6110,-33.7860,33.7500
0.0086,0.0410,-0.0230,1.2010,13.3130,19.4050,-33.2060,33.8000
0.0088,0.0430,-0.0290,1.1880,12.5650,20.0150,-35.3890,33.8500
0.0090,0.0610,-0.0290,1.1850,12.3050,20.2600,-34.9770,33.7100
0.0092,0.0650,-0.0390,1.1860,11.7400,19.8320,-34.7180,33.8000
0.0094,0.0640,-0.0100,1.1780,7.0840,21.4200,-33.1450,33.8500
0.0096,0.0890,0.0150,1.1750,0.1680,23.8780,-29.5880,33.8900
0.0098,0.0930,0.0170,1.1620,-5.3740,22.4270,-28.0000,33.8500
0.0100,0.0940,0.0260,1.1990,-5.1300,23.3440,-30.2140,33.7500
0.0102,0.0900,0.0020,1.2350,-0.1680,24.6410,-30.5800,33.8000
0.0104,0.0900,-0.0120,1.2330,2.0610,26.5040,-30.9920,33.7500
0.0106,0.0960,-0.0020,1.2240,1.5270,29.4200,-29.8020,33.8000
0.0108,0.0870,0.0090,1.1830,-0.4270,31.2980,-30.6110,33.8500
0.0110,0.0920,0.0340,1.1820,-1.3590,29.4200,-29.7100,33.8500
0.0112,0.0830,0.0350,1.1640,2.9160,29.7400,-33.4960,33.8000
0.0114,0.0790,0.0190,1.1700,4.3210,25.7100,-35.0080,33.8500
0.0117,0.0550,-0.0090,1.1800,1.0530,27.6640,-34.5950,33.8500
0.0119,0.0420,-0.0050,1.1860,-6.0920,26.2600,-38.5340,33.8000
0.0121,0.0460,-0.0060,1.1690,-9.4050,26.2600,-42.3660,33.7500
0.0123,0.0440,-0.0030,1.1870,-7.8470,25.1760,-43.2060,33.8000
0.0125,0.0550,0.0230,1.2110,-2.5650,23.9080,-42.6720,33.8500
0.0127,0.0520,-0.0130,1.2130,6.6260,22.3360,-38.5500,33.8500
0.0129,0.0330,-0.0400,1.1900,11.0230,22.0460,-35.7100,33.7100
0.0131,0.0350,-0.0440,1.1790,7.0990,20.1980,-35.8930,33.8500
0.0133,0.0240,-0.0220,1.1710,-1.7560,20.2140,-34.0460,33.8000
0.0137,0.0400,-0.0140,1.1640,-7.6030,21.0080,-33.6790,33.7500
0.0140,0.0510,0.0000,1.1590,-8.4580,20.5040,-38.0920,33.7500
0.0142,0.0490,0.0480,1.1920,-7.1910,17.5880,-37.3740,33.8000
0.0144,0.0420,0.0570,1.2260,-1.9850,19.0380,-34.2140,33.7500
0.0146,0.0350,0.0560,1.2640,4.1530,21.5110,-34.0760,33.7500
0.0148,0.0230,0.0550,1.2440,1.6950,24.9010,-34.4730,33.8000
0.0150,0.0130,0.0180,1.1820,4.1980,27.1760,-33.7250,33.8500
0.0151,0.0190,-0.0200,1.1600,11.3280,23.6950,-35.8780,33.8000
0.0153,0.0060,-0.0650,1.1780,15.3890,24.8090,-36.6720,33.8000
0.0155,-0.0010,-0.0750,1.2060,8.9920,23.0380,-33.0990,33.7500
0.0157,-0.0230,-0.0750,1.2490,-0.4270,24.5040,-31.4350,33.8000
0.0159,-0.0140,-0.0310,1.2850,-6.3510,24.9770,-29.0840,33.8500
0.0161,-0.0240,-0.0150,1.2780,-8.2750,29.0990,-28.7630,33.8000
0.0163,-0.0340,-0.0150,1.2240,-7.2520,30.2900,-28.9770,33.7500
0.0165,-0.0320,-0.0340,1.1890,0.5340,27.5880,-28.3660,33.7500
0.0167,-0.0500,-0.0490,1.2110,9.5730,27.9690,-27.8470,33.8900
0.0169,-0.0590,-0.0700,1.2410,19.9690,27.3440,-25.2520,33.7500
0.0171,-0.0450,-0.0580,1.2740,24.3360,28.2140,-27.3890,33.8500
0.0173,-0.0310,0.0230,1.2520,14.9620,34.6260,-28.1370,33.8000
0.0175,-0.0080,0.1030,1.2360,0.8240,37.4350,-29.2980,33.7500
0.0176,-0.0210,0.1210,1.1910,0.3210,38.7330,-29.7100,33.8000
0.0178,-0.0770,0.0670,1.1570,12.3820,42.2290,-32.6110,33.8000
0.0180,-0.0900,0.0560,1.1470,21.1450,42.4270,-30.9010,33.8500
0.0182,-0.0860,0.0400,1.1170,23.6640,41.2370,-30.6720,33.8000
0.0184,-0.1030,0.0020,1.1260,16.1070,38.3820,-35.8170,33.7500
0.0186,-0.1140,-0.0190,1.1270,7.6340,36.4120,-28.5650,33.7500
0.0188,-0.1230,-0.0630,1.0860,7.2210,31.4960,-22.7790,33.6600
0.0190,-0.1380,-0.0870,1.0520,7.1450,29.5270,-18.6720,33.7500
0.0192,-0.1440,-0.0780,1.0670,12.4890,24.7020,-9.4200,33.8000
0.0194,-0.1090,-0.0340,1.0610,12.1220,26.5340,-4.3970,33.7500
0.0196,-0.0400,0.0340,1.0880,-1.8630,21.9690,-3.5420,33.7500
0.0197,0.0030,0.0780,1.0950,-14.7020,22.9770,-9.2980,33.8000
0.0199,0.0280,0.1370,1.1660,-17.1910,21.3130,-12.8090,33.7500
0.0201,0.0580,0.1830,1.1710,-13.5270,21.7100,-13.9240,33.8000
0.0203,0.0440,0.2080,1.2070,-4.9310,24.0000,-14.7940,33.8000
0.0205,0.0020,0.1180,1.1890,-4.3210,27.2210,-21.1760,33.7500
0.0207,-0.0180,0.1170,1.1910,-10.2290,30.8400,-21.2820,33.8000
0.0209,-0.0300,0.0520,1.1650,-10.0610,35.3440,-19.4050,33.7500
0.0211,-0.0160,0.0470,1.1200,-12.0150,36.7940,-14.6720,33.6600
0.0213,-0.0060,0.0420,1.0350,-11.3130,38.9920,-9.5420,33.7500
0.0217,0.0010,0.0470,1.0110,-14.0920,31.9690,-10.9310,33.8500
0.0219,0.0250,0.1000,1.0050,-16.3820,27.6340,-12.7790,33.7100
0.0220,0.0270,0.1050,1.0140,-15.0080,20.0610,-11.4960,33.7500
0.0222,0.0190,0.0830,1.0510,-7.6950,15.9690,-9.6950,33.7500
0.0224,0.0140,0.0600,1.0930,-2.4430,11.5270,-6.9620,33.8000
0.0226,0.0430,0.0520,1.1250,-3.7860,14.9770,-3.2370,33.7500
0.0227,0.0730,0.0660,1.1390,-14.0310,16.6260,-2.4580,33.7100
0.0229,0.0980,0.0960,1.1510,-20.6410,21.6030,-5.9850,33.8500
0.0231,0.1320,0.1480,1.1800,-14.7480,25.0840,-9.9540,33.7500
0.0233,0.1360,0.1580,1.2270,-7.6640,28.9770,-14.6110,33.8000
0.0234,0.1060,0.1380,1.2560,-4.4580,35.0230,-18.9470,33.8500
0.0236,0.0730,0.0670,1.2440,-5.9390,41.0990,-20.2140,33.8000
0.0238,0.0320,0.0180,1.1640,-12.7940,48.4730,-18.5340,33.7500
0.0240,0.0220,0.0090,1.1200,-23.4350,53.0990,-21.2060,33.8500
0.0242,0.0150,0.0190,1.0910,-20.2290,48.2900,-19.9240,33.8000
0.0244,0.0160,0.0350,1.0790,-24.6870,43.0990,-21.6950,33.7500
0.0246,0.0070,0.0480,1.0960,-24.1680,36.8850,-25.1760,33.7100
0.0247,-0.0100,0.0610,1.1470,-19.6790,34.3210,-28.5040,33.8000
0.0249,-0.0160,0.0530,1.1410,-12.0460,35.0530,-30.0920,33.8500
0.0251,-0.0280,0.0420,1.1290,-9.2820,34.5040,-30.6560,33.8000
0.0253,-0.0360,0.0090,1.1240,-4.3210,34.3210,-29.7710,33.7500
0.0254,-0.0230,-0.0200,1.1190,-5.8320,32.3050,-27.7860,33.8000
0.0256,-0.0240,-0.0440,1.1370,-8.7940,31.1600,-26.5650,33.7100
0.0258,-0.0110,-0.0180,1.1720,-10.5190,32.8240,-25.7560,33.7500
0.0260,0.0050,0.0340,1.1840,-8.8550,33.7860,-26.1830,33.7100
0.0262,0.0240,0.0590,1.1850,-6.9470,34.9470,-29.5270,33.7500
0.0264,0.0290,0.0620,1.1740,-4.1680,34.3970,-32.6870,33.8500
0.0265,0.0120,0.0440,1.1700,-3.2820,33.8630,-36.4890,33.8000
0.0267,0.0170,0.0420,1.1700,-7.8020,32.1370,-42.4270,33.7500
0.0269,0.0120,0.0340,1.1790,-6.1830,27.3280,-40.1070,33.8000
0.0271,-0.0130,0.0120,1.1870,-0.7020,28.0000,-40.8850,33.7500
0.0272,-0.0190,0.0260,1.2290,-1.3590,29.4660,-41.4960,33.7500
0.0274,-0.0350,0.0360,1.2200,-8.7180,28.5950,-37.5110,33.8500
0.0276,-0.0310,-0.0320,1.1150,-12.4580,29.9540,-34.9160,33.6600
0.0278,-0.0080,-0.0430,1.0570,-0.5340,22.6260,-32.6560,33.8000
0.0279,-0.0010,-0.0620,1.1070,3.2060,14.4580,-30.0150,33.7500
0.0281,0.0040,-0.0660,1.1560,-0.3970,7.2980,-29.6950,33.7500
0.0283,0.0130,-0.0300,1.2370,-2.0920,5.3740,-30.7940,33.7100
0.0284,0.0130,0.0390,1.2970,-1.4350,10.9920,-31.2060,33.7500
0.0286,0.0100,0.0820,1.2810,-1.6490,18.9770,-34.3970,33.8000
0.0288,0.0180,0.1070,1.2350,-4.5340,23.8020,-37.6180,33.8000
0.0290,0.0230,0.1000,1.1530,-12.5950,20.3660,-41.5730,33.7500
0.0291,0.0170,0.0700,1.0960,-20.0460,11.8780,-47.9540,33.8000
0.0293,0.0250,0.0430,1.1220,-22.4120,5.6030,-52.5650,33.7500
0.0295,0.0240,0.0380,1.1510,-22.1070,3.9690,-53.1760,33.7100
0.0296,0.0150,-0.0000,1.2220,-18.1070,6.0460,-52.1220,33.7500
0.0298,0.0020,-0.0220,1.2620,-16.4580,10.8090,-49.0380,33.7500
0.0300,-0.0000,-0.0130,1.2390,-19.1300,14.1830,-42.9310,33.8000
0.0303,-0.0350,-0.0470,1.1920,-11.1760,12.7790,-34.3820,33.8500
0.0305,-0.0400,-0.0680,1.1520,-9.6790,11.9240,-30.8700,33.7100
0.0306,-0.0220,-0.0650,1.1080,-15.4500,8.5040,-31.4660,33.8000
0.0308,-0.0070,-0.0470,1.1210,-23.1150,3.3890,-32.2140,33.7500
0.0310,0.0190,-0.0370,1.1340,-26.5950,2.3820,-33.5570,33.7100
0.0311,0.0530,-0.0100,1.1400,-20.9160,3.0530,-37.4050,33.7500
0.0315,0.0470,-0.0700,1.1480,8.0610,26.3660,-45.1150,33.8000
0.0317,0.0470,-0.0720,1.1460,4.9010,24.1370,-46.0000,33.7500
0.0319,0.0440,-0.0690,1.1610,4.4730,22.6110,-46.7020,33.8000
0.0373,0.0440,-0.0740,1.1780,5.6180,23.4200,-47.3590,33.7100
0.0496,0.0380,-0.0830,1.1790,1.2820,24.7790,-47.4810,33.7500
0.0565,0.0330,-0.0780,1.1800,-1.5570,26.3210,-47.7860,33.8000
0.0688,0.0440,-0.0660,1.1870,-3.3440,28.1980,-50.2750,33.7500
0.0755,0.0420,-0.0690,1.1920,-5.4660,28.9920,-51.0990,33.8000
0.0878,0.0350,-0.0790,1.1750,-5.8320,29.5730,-50.9160,33.8000
0.0999,0.0210,-0.0850,1.1580,-4.8550,28.8240,-50.9160,33.8500
0.1068,0.0140,-0.0800,1.1430,-0.4890,26.0000,-48.4120,33.8000
0.1189,0.0160,-0.0720,1.1590,3.1760,23.9540,-47.2980,33.7500
0.1258,0.0160,-0.0900,1.1770,3.3130,22.0920,-46.2440,33.7500
0.1381,0.0110,-0.0980,1.1990,1.8630,22.1680,-46.1680,33.7500
0.1503,0.0100,-0.1110,1.2060,1.2060,22.2600,-46.1680,33.7500
0.1574,0.0180,-0.0900,1.2120,4.2290,23.7100,-44.3970,33.7100
0.1696,0.0340,-0.0850,1.2000,7.5270,25.0990,-43.9390,33.8500
0.1764,0.0360,-0.0730,1.1690,7.5270,25.0080,-44.0610,33.7500
0.1886,0.0330,-0.0720,1.1530,7.9690,23.5110,-44.2140,33.8000
0.1957,0.0260,-0.0800,1.1510,10.8850,20.5340,-44.0460,33.7500
0.2079,0.0280,-0.0600,1.1810,13.8780,18.5190,-42.8850,33.8000
0.2200,0.0350,-0.0600,1.1850,11.5270,18.7330,-43.3890,33.7100
0.2269,0.0320,-0.0690,1.1780,6.5650,19.3740,-43.9850,33.7500
0.2394,0.0350,-0.0630,1.1660,4.9770,21.0380,-44.9010,33.7100
0.2460,0.0460,-0.0420,1.1580,5.3890,21.5270,-44.9770,33.7500
0.2582,0.0440,-0.0520,1.1500,2.8090,20.7330,-45.4810,33.7500
0.2704,0.0470,-0.0760,1.1480,3.4350,15.9390,-45.2060,33.7500
0.2778,0.0430,-0.0790,1.1560,8.8090,13.5730,-42.5950,33.7500
0.2898,0.0490,-0.0620,1.1760,11.6180,13.4960,-40.8090,33.7100
0.2966,0.0510,-0.0490,1.2050,6.8550,15.9080,-41.2060,33.7500
0.3087,0.0490,-0.0340,1.2020,1.4810,18.8700,-43.2670,33.7500
0.3160,0.0520,-0.0310,1.1920,-3.6340,20.9770,-44.3970,33.8000
0.3280,0.0470,-0.0230,1.1620,-3.9240,20.9310,-46.7020,33.7500
0.3400,0.0500,-0.0220,1.1490,-0.6410,18.2750,-47.2520,33.8000
0.3473,0.0490,-0.0340,1.1480,2.1980,16.2750,-48.6870,33.8000
0.3592,0.0440,-0.0520,1.1360,0.6110,15.7560,-49.0990,33.7500
0.3660,0.0230,-0.0700,1.1240,-0.2290,13.2520,-47.0530,33.7100
0.3782,0.0190,-0.0810,1.1630,2.6410,13.6340,-43.4810,33.7500
0.3904,0.0250,-0.0810,1.1750,-3.4960,14.9770,-43.5110,33.7500
0.3972,0.0310,-0.0420,1.1820,-9.9240,17.2060,-43.9540,33.7500
0.4096,0.0460,-0.0150,1.1530,-9.7710,19.3280,-43.8320,33.7500
0.4162,0.0370,-0.0210,1.1530,-7.9850,17.5880,-39.8320,33.7100
0.4286,0.0740,-0.0470,1.1680,-9.3280,16.4580,-43.8170,33.7500
0.4343,0.0630,-0.0220,1.1590,-10.0920,16.4580,-46.3510,33.7100
0.4476,0.0770,-0.0170,1.1720,-14.7180,17.8780,-46.7790,33.8000
0.4595,0.0780,-0.0150,1.1670,-14.2140,18.3970,-47.8630,33.7500
0.4665,0.0680,-0.0260,1.1950,-7.2670,16.7630,-47.4350,33.8000
0.4787,0.0640,-0.0470,1.2170,0.5800,17.2210,-47.8320,33.7500
0.4842,0.0530,-0.0660,1.2090,-3.7100,20.6260,-46.8700,33.7500
0.4976,0.0540,-0.0620,1.1780,-6.4430,23.1300,-47.8470,33.8000
0.5099,0.0520,-0.0660,1.1670,-6.9010,24.3510,-48.6260,33.7500
0.5167,0.0510,-0.0680,1.1710,-5.7400,23.5110,-48.2900,33.8000
0.5288,0.0560,-0.0670,1.1770,-4.1370,22.0760,-49.2820,33.6600
0.5354,0.0480,-0.0850,1.2100,-3.8020,24.0460,-49.8470,33.8500
0.5480,0.0330,-0.1000,1.2200,-0.4890,26.1680,-47.6340,33.8000
0.5599,0.0230,-0.1070,1.2060,-0.8550,29.8630,-45.1150,33.7500
0.5668,0.0290,-0.0830,1.2000,-8.1980,32.7180,-46.1070,33.8000
0.5788,0.0410,-0.0260,1.1750,-14.7330,33.5270,-45.3280,33.8500
0.5859,0.0450,-0.0230,1.1250,-7.0990,29.8020,-47.5570,33.8500
0.5980,0.0540,-0.0150,1.1160,-1.9240,23.7100,-49.9390,33.8000
0.6102,0.0550,-0.0640,1.1410,2.3050,17.7400,-51.6180,33.7500
0.6168,0.0550,-0.0840,1.1830,1.3440,16.6260,-52.4120,33.8000
0.6292,0.0400,-0.1100,1.1960,-1.7860,18.1220,-52.7480,33.7100
0.6364,0.0420,-0.0930,1.2120,-3.6340,22.5190,-51.6640,33.7500
0.6484,0.0500,-0.0570,1.2100,0.0610,23.9240,-51.1760,33.8000
0.6602,0.0500,-0.0500,1.2000,1.0380,22.8400,-52.1680,33.7500
0.6674,0.0490,-0.0390,1.1780,1.2060,23.4050,-52.9470,33.7500
0.6796,0.0390,-0.0590,1.1550,3.3130,22.6110,-51.5420,33.8000
0.6868,0.0320,-0.0870,1.1660,1.7100,21.4810,-50.1070,33.8500
0.6990,0.0390,-0.0760,1.1510,-2.8240,21.9080,-48.6720,33.8000
0.7060,0.0490,-0.0540,1.1740,-7.0230,22.3820,-48.8240,33.8000
0.7181,0.0580,-0.0330,1.1560,-5.3740,20.7180,-51.0840,33.7500
0.7298,0.0610,-0.0370,1.1720,-1.9390,18.9010,-53.2520,33.8000
0.7369,0.0490,-0.0100,1.1770,2.0310,17.9850,-54.6410,33.8500
0.7490,0.0380,-0.0400,1.2090,3.8780,17.3130,-55.4050,33.7500
0.7562,0.0280,-0.0750,1.1760,3.7710,18.5040,-54.2440,33.8000
0.7683,0.0250,-0.0760,1.1880,6.5800,18.3210,-52.1830,33.8500
0.7803,0.0290,-0.0790,1.1720,4.6410,19.8630,-51.0530,33.7100
0.7876,0.0260,-0.0860,1.1860,2.9160,19.3890,-51.9390,33.8500
0.7995,0.0190,-0.0770,1.1430,1.8020,20.9310,-53.3890,33.8500
0.8066,0.0180,-0.0730,1.1730,0.5190,17.5110,-52.9620,33.8000
0.8187,0.0210,-0.0670,1.1730,4.6720,17.8170,-51.1300,33.7500
0.8259,0.0130,-0.0700,1.1580,7.4960,16.7940,-50.9770,33.7100
0.8379,0.0320,-0.0730,1.1970,2.4730,17.4660,-50.5950,33.8000
0.8501,0.0340,-0.0630,1.1810,2.5650,18.6110,-50.9010,33.7500
0.8573,0.0380,-0.0660,1.2150,2.8090,19.6340,-48.6720,33.8000
0.8694,0.0390,-0.0480,1.1820,0.5190,20.5500,-50.6720,33.6600
0.8765,0.0490,-0.0420,1.1780,-5.0530,20.2900,-52.8700,33.8500
0.8884,0.0390,-0.0400,1.1670,-3.8780,17.5270,-52.6560,33.8000
0.9005,0.0460,-0.0470,1.1490,5.1150,18.9010,-51.3130,33.7500
0.9076,0.0430,-0.0600,1.1450,4.3820,17.6490,-54.0760,33.7100
0.9198,0.0420,-0.0640,1.1720,-3.3590,14.8700,-53.0080,33.7500
0.9268,0.0360,-0.0660,1.1580,-5.0380,17.0380,-53.6790,33.8500
0.9389,0.0500,-0.0590,1.1800,-7.7860,17.1300,-52.0310,33.8000
0.9458,0.0540,-0.0380,1.2000,-9.4500,20.1530,-52.6560,33.7500
0.9578,0.0530,-0.0230,1.1850,-12.2140,22.0460,-52.7180,33.7500
0.9698,0.0550,-0.0140,1.2140,-6.1980,21.0840,-53.0080,33.8000
0.9768,0.0600,-0.0340,1.1790,0.7940,21.7860,-52.9010,33.7500
0.9889,0.0470,-0.0690,1.1430,2.7630,19.0840,-53.5570,33.8000
0.9961,0.0410,-0.0790,1.2000,3.0530,17.2820,-52.9470,33.7500
1.0080,0.0530,-0.0620,1.1980,6.9770,17.7100,-51.6790,33.7500
1.0203,0.0450,-0.0680,1.2240,4.4270,21.2210,-51.1600,33.7100
1.0273,0.0490,-0.0420,1.2090,1.9390,24.0610,-51.7250,33.7500
1.0394,0.0430,-0.0130,1.2040,1.1450,24.5040,-48.6410,33.7100
1.0461,0.0340,-0.0450,1.1740,10.3360,22.3510,-50.0150,33.8500
1.0584,0.0260,-0.0300,1.1560,10.4120,20.7790,-51.1150,33.6600
1.0638,0.0280,-0.0240,1.1630,5.5270,19.3740,-51.0230,33.8000
1.0775,0.0270,-0.0260,1.1630,2.6110,20.7020,-53.1150,33.7500
1.0896,0.0250,-0.0400,1.1680,-2.0150,21.1600,-53.6950,33.7500
1.0966,0.0260,-0.0510,1.1860,-1.3890,21.6640,-54.2750,33.8000
1.1087,0.0150,-0.0730,1.1970,4.5500,21.8930,-52.9010,33.7500
1.1156,0.0190,-0.0750,1.2070,3.8020,23.6640,-52.1530,33.7100
1.1279,0.0200,-0.0810,1.1720,-0.8090,24.2140,-51.0530,33.8500
1.1402,0.0130,-0.0600,1.1670,-3.1760,24.9770,-51.3440,33.7500
1.1469,0.0320,-0.0420,1.1490,-4.5190,24.3820,-50.1680,33.7100
1.1592,0.0260,-0.0560,1.1150,-4.1220,20.0920,-49.5270,33.6600
1.1660,0.0290,-0.0490,1.1190,-4.5190,17.2210,-50.4430,33.8900
1.1782,0.0340,-0.0430,1.1280,-4.3820,16.1530,-49.9540,33.8500
1.1902,0.0430,-0.0240,1.1530,-2.9010,16.3050,-48.8090,33.7500
1.1974,0.0490,-0.0230,1.1590,-2.1530,16.8550,-49.5110,33.7100
1.2093,0.0430,-0.0300,1.1650,-4.2440,16.7020,-52.3510,33.8500
1.2163,0.0400,-0.0290,1.1640,-2.2600,16.1370,-51.8020,33.6600
1.2283,0.0560,-0.0250,1.1760,-3.3280,16.8090,-52.1830,33.8900
1.2405,0.0560,-0.0370,1.1950,-8.5190,17.6640,-53.2060,33.7500
1.2476,0.0540,-0.0560,1.2060,-12.1830,19.6950,-53.5270,33.8000
1.2596,0.0580,-0.0660,1.2170,-9.0230,19.6490,-53.1600,33.7500
1.2665,0.0510,-0.0700,1.2150,-6.5340,21.7560,-53.8630,33.7500
1.2785,0.0450,-0.0850,1.2080,-6.5500,23.8780,-53.7560,33.8000
1.2905,0.0560,-0.0760,1.1880,-6.1680,23.0990,-53.3440,33.7500
1.2976,0.0510,-0.0730,1.1810,-3.7250,23.9390,-51.8470,33.8000
1.3095,0.0580,-0.0530,1.1670,-2.7180,22.5190,-49.1910,33.7500
1.3164,0.0520,-0.0540,1.1610,0.4580,22.1680,-46.1530,33.8500
1.3287,0.0440,-0.0490,1.1420,1.0990,21.4810,-47.0990,33.8000
1.3356,0.0470,-0.0200,1.1450,-5.7860,21.3280,-47.8930,33.7500
1.3481,0.0320,-0.0070,1.1370,-5.4660,20.7020,-49.1300,33.7500
1.3599,0.0350,-0.0000,1.1470,-2.9160,18.1980,-52.0610,33.7100
1.3668,0.0370,0.0080,1.1840,0.5800,16.6110,-51.4350,33.8500
1.3791,0.0330,-0.0080,1.2090,1.8170,16.5650,-53.7710,33.8000
1.3862,0.0330,-0.0430,1.2120,8.3210,16.3360,-50.8400,33.7500
1.3983,0.0170,-0.0800,1.2180,10.9770,17.8780,-50.7480,33.7500
1.4106,0.0210,-0.0950,1.2130,5.0990,18.5040,-50.0610,33.8900
1.4175,0.0140,-0.1150,1.2170,1.3890,20.3510,-49.1150,33.6600
1.4296,0.0200,-0.1080,1.1980,-0.4270,20.3970,-49.4810,33.8000
1.4369,0.0160,-0.0920,1.2060,-1.4350,21.9690,-49.6030,33.7500
1.4484,0.0270,-0.0800,1.1900,-1.3280,21.7860,-48.7630,33.7500
1.4556,0.0330,-0.0860,1.1630,2.6560,21.4660,-49.2820,33.8000
1.4680,0.0370,-0.0590,1.1430,0.0760,20.2600,-47.3740,33.7500
1.4801,0.0410,-0.0500,1.1220,1.6030,18.5340,-43.9540,33.7500
1.4869,0.0400,-0.0370,1.1240,4.0000,16.8090,-43.5270,33.7100
1.4990,0.0590,0.0000,1.1320,0.4580,15.1600,-42.6110,33.7500
1.5060,0.0540,0.0260,1.1650,-0.7940,14.1980,-43.8020,33.7100
1.5184,0.0660,0.0230,1.1750,1.5570,14.7940,-47.4960,33.8000
1.5241,0.0660,0.0160,1.1930,0.7330,15.4660,-50.3820,33.7500
1.5379,0.0660,-0.0030,1.1950,-5.2210,17.8320,-52.6870,33.7100
1.5497,0.0610,-0.0100,1.1770,-6.9770,18.0150,-53.0990,33.7500
1.5570,0.0490,-0.0410,1.1670,-4.1070,18.8850,-52.5500,33.7500
1.5689,0.0620,-0.0460,1.1780,-3.9390,17.1760,-51.3280,33.7100
1.5758,0.0550,-0.0630,1.1590,0.7630,16.6260,-48.6870,33.8500
1.5882,0.0550,-0.0640,1.1780,2.0760,16.2900,-47.6340,33.8000
1.6003,0.0550,-0.0650,1.1680,1.3590,16.5340,-47.3890,33.8900
1.6073,0.0410,-0.0680,1.1820,0.5340,16.5500,-47.1760,33.8500
1.6194,0.0440,-0.0710,1.1760,-2.4580,15.8320,-46.8700,33.8000
1.6265,0.0510,-0.0870,1.1950,-5.0380,21.0990,-45.2670,33.8500
1.6384,0.0460,-0.0990,1.2180,-9.6180,21.3590,-44.4890,33.7500
1.6506,0.0630,-0.0640,1.1960,-14.5340,24.2440,-44.8700,33.8900
1.6573,0.0780,-0.0350,1.1750,-13.5270,25.3890,-44.1220,33.7500
1.6693,0.0720,0.0050,1.1530,-7.6030,26.7480,-42.4890,33.8000
1.6766,0.0670,0.0030,1.1690,-5.6790,26.0000,-43.9850,33.7100
1.6887,0.0830,0.0170,1.1540,-3.8170,26.2440,-46.7480,33.7500
1.6960,0.0740,0.0110,1.1530,-0.8400,23.4960,-47.5880,33.8900
1.7078,0.0740,-0.0010,1.1790,-0.4890,21.4200,-48.6560,33.8500
1.7198,0.0620,-0.0090,1.1650,3.2210,23.9390,-50.0310,33.7100
1.7268,0.0660,-0.0320,1.1910,2.7630,25.0380,-50.9010,33.8000
1.7392,0.0410,-0.0690,1.1980,-7.7560,24.7790,-53.7860,33.8500
1.7460,0.0380,-0.0670,1.2160,-10.3360,27.5570,-52.5500,33.7100
1.7583,0.0420,-0.0640,1.1700,-4.6870,26.6870,-49.1910,33.7500
1.7701,0.0410,-0.0740,1.1480,0.0150,24.7630,-48.8700,33.7500
1.7773,0.0330,-0.0630,1.1730,1.7400,19.2670,-48.3820,33.8000
1.7892,0.0490,-0.0480,1.1800,5.3130,20.4120,-48.9160,33.7500
1.7964,0.0430,-0.0470,1.2220,7.6640,15.4660,-47.5420,33.8000
1.8087,0.0290,-0.0450,1.2370,4.5500,18.7330,-48.6110,33.8000
1.8146,0.0290,-0.0300,1.2210,0.4120,21.2980,-49.8930,33.8500
1.8278,0.0430,-0.0480,1.2000,3.4500,20.0150,-50.8550,33.8000
1.8397,0.0380,-0.0550,1.1840,2.9770,20.7020,-50.4730,33.7500
1.8469,0.0370,-0.0690,1.1900,-0.4890,18.7790,-50.1370,33.7100
1.8592,0.0470,-0.0500,1.1800,3.4200,16.8090,-48.6110,33.8000
1.8658,0.0460,-0.0440,1.1820,-0.1980,17.6950,-49.6640,33.7500
1.8782,0.0470,-0.0390,1.1810,0.0920,17.7100,-49.1150,33.7100
1.8903,0.0480,-0.0560,1.1810,2.5500,16.1370,-47.5110,33.7500
1.8977,0.0420,-0.0640,1.1680,5.0380,14.7790,-44.5800,33.8500
1.9095,0.0490,-0.0650,1.1560,4.4430,16.7180,-44.2750,33.7100
1.9163,0.0770,-0.0220,1.1360,1.6180,20.1370,-44.9310,33.7500
1.9287,0.0330,-0.0190,1.2040,-11.4500,15.2820,-44.9010,33.8000
1.9347,0.0630,0.0130,1.1980,-5.9390,20.3050,-46.7180,33.7100
1.9479,0.0730,0.0090,1.1490,-7.6180,10.3660,-46.4730,33.7500
1.9598,0.0730,-0.0110,1.1440,-3.0690,18.1680,-46.5040,33.8000
1.9669,0.0700,-0.0190,1.1380,-0.9620,17.2980,-46.2290,33.7500
1.9789,0.0640,-0.0210,1.1560,-4.2440,14.8240,-47.3440,33.7500
1.9861,0.0860,0.0130,1.1840,-3.9080,13.4810,-45.9540,33.8000
1.9982,0.0930,0.0030,1.2090,-7.2520,14.2440,-48.3360,33.7500
2.0104,0.0690,-0.0090,1.2060,-6.4120,26.0310,-45.4660,33.8000
2.0171,0.0410,-0.0360,1.1930,-7.3890,18.4890,-42.4730,33.8500
2.0295,0.0680,-0.0500,1.1650,2.4890,18.3970,-44.2440,33.8500
2.0364,0.0720,-0.0590,1.1540,-1.9690,20.6560,-44.0920,33.8000
2.0482,0.0670,-0.0700,1.1480,-7.2060,17.0080,-46.1980,33.7500
2.0605,0.0600,-0.0530,1.1670,-9.7560,16.4730,-47.7400,33.7100
2.0674,0.0600,-0.0500,1.2010,-7.0990,14.7180,-48.4730,33.8000
2.0796,0.0580,-0.0480,1.2350,-12.3050,19.1600,-49.8780,33.7500
2.0865,0.0570,-0.0470,1.2280,-13.4810,21.8630,-48.9920,33.8000
2.0983,0.0450,-0.0300,1.1820,-11.7560,25.4810,-48.6720,33.8500
2.1104,0.0350,-0.0370,1.1630,-11.3280,20.2290,-51.0690,33.6600
2.1170,0.0460,-0.0450,1.1920,0.9160,17.4810,-52.3510,33.7100
2.1293,0.0520,-0.0340,1.1750,5.9390,16.2750,-51.2060,33.7500
2.1366,0.0680,-0.0530,1.1780,7.5880,22.3510,-47.1760,33.7100
2.1487,0.0730,-0.0710,1.1550,-3.4810,20.6720,-49.1150,33.8500
2.1545,0.0860,-0.0350,1.1300,-12.7790,24.3510,-47.7400,33.7500
2.1677,0.0740,0.0150,1.1010,-18.9470,24.9160,-48.8090,33.8000
2.1795,0.0720,-0.0140,1.1340,-12.9920,18.9920,-47.0690,33.8500
2.1866,0.0740,-0.0230,1.1190,-11.8020,17.6640,-47.6790,33.8500
2.1987,0.0810,-0.0240,1.1240,-8.7480,12.6410,-49.5730,33.7100
2.2105,0.0780,-0.0390,1.1590,-10.7020,12.1680,-52.6560,33.7500
2.2173,0.0630,-0.0720,1.2030,-4.7480,11.0380,-53.3130,33.8000
2.2296,0.0650,-0.0920,1.2570,-0.8240,14.2900,-52.3970,33.7500
2.2366,0.0390,-0.1270,1.2760,3.1450,16.6110,-47.9850,33.8500
2.2486,0.0340,-0.1490,1.2330,2.1370,22.3360,-44.4890,33.8000
2.2558,0.0320,-0.1400,1.2330,1.4200,24.6560,-42.2750,33.7500
2.2679,0.0290,-0.1130,1.2280,0.4580,25.4200,-42.3660,33.8000
2.2801,0.0340,-0.0960,1.2120,3.4350,26.0150,-42.0310,33.8500
2.2873,0.0400,-0.1010,1.1810,12.7790,23.9690,-40.0920,33.7500
2.2990,0.0390,-0.0910,1.1520,15.3890,22.8550,-38.5340,33.8000
2.3062,0.0350,-0.0540,1.1310,4.1530,24.3660,-39.7250,33.7500
2.3183,0.0450,-0.0190,1.1470,-3.6640,21.9540,-40.4430,33.7500
2.3301,0.0520,-0.0050,1.1400,-4.1220,20.1980,-42.7480,33.8000
2.3374,0.0550,0.0040,1.1670,-3.3740,18.4430,-45.3440,33.7500
2.3496,0.0380,-0.0430,1.2340,0.3510,16.5950,-45.5730,33.8000
2.3565,0.0740,-0.0370,1.1900,7.5880,17.0840,-47.2820,33.7500
2.3686,0.0610,-0.0370,1.2090,7.1760,18.5500,-47.4810,33.7500
2.3757,0.0340,-0.0510,1.1910,3.8780,22.1220,-48.0310,33.8000
2.3879,0.0400,-0.0570,1.1740,4.7790,24.2290,-48.5040,33.7500
2.3999,0.0330,-0.0620,1.1490,1.8780,22.9470,-48.8400,33.7100
2.4070,0.0500,-0.0490,1.1290,1.8630,19.7100,-48.0150,33.8500
2.4194,0.0490,-0.0760,1.1220,8.1830,15.7100,-44.6110,33.7500
2.4263,0.0640,-0.0700,1.1380,4.7940,16.0000,-44.1530,33.8000
2.4384,0.0560,-0.0530,1.1490,0.7630,14.9310,-43.8930,33.7500
2.4506,0.0630,-0.0480,1.1500,-2.1830,13.0990,-43.8780,33.8000
2.4576,0.0640,-0.0240,1.1460,-1.2370,16.2750,-43.5420,33.8000
2.4696,0.0770,-0.0190,1.1940,-2.2290,15.1450,-44.7630,33.7500
2.4771,0.0950,-0.0310,1.1930,-4.7020,15.2980,-46.2900,33.8000
2.4887,0.1250,-0.0390,1.1590,-3.3440,16.9920,-45.7400,33.7500
2.4957,0.1110,-0.0220,1.1630,-5.2210,21.1150,-46.1220,33.8500
2.5075,0.1180,-0.0060,1.1810,-4.3050,20.7630,-43.9540,33.7100
2.5198,0.1160,-0.0020,1.1720,1.8630,19.9080,-45.6340,33.8500
2.5270,0.1030,0.0000,1.2000,0.2750,21.5730,-48.6410,33.7100
2.5391,0.1020,-0.0060,1.1760,-1.5420,22.5340,-50.7940,33.6600
2.5460,0.0830,-0.0270,1.2100,3.0080,20.7630,-51.8780,33.7500
2.5582,0.0730,-0.0470,1.1870,3.4050,27.7400,-51.8630,33.8000
2.5704,0.0600,-0.0670,1.2070,-0.9770,27.3740,-50.7940,33.7500
2.5775,0.0630,-0.0430,1.1810,-0.1370,28.6560,-48.5650,33.8000
2.5895,0.0710,-0.0610,1.1650,2.9470,27.3280,-48.4430,33.7100
2.5964,0.0610,-0.0510,1.1730,2.8850,25.6640,-49.2370,33.7500
2.6085,0.0540,-0.0320,1.1960,-6.4890,27.1300,-52.1070,33.8000
2.6143,0.0580,0.0020,1.1960,2.7940,27.3280,-51.1910,33.7500
2.6278,0.0490,-0.0170,1.2020,5.1760,25.2060,-51.0080,33.7500
2.6400,0.0720,-0.0290,1.1550,0.6410,25.2370,-55.4810,33.8000
2.6470,0.0670,-0.0280,1.1900,-5.0380,21.6030,-56.5500,33.7500
2.6590,0.0720,-0.0240,1.2010,-2.5500,22.7790,-56.7330,33.8000
2.6657,0.0820,-0.0140,1.1960,4.5500,21.0690,-55.3280,33.7500
2.6782,0.0640,-0.0200,1.2050,8.7330,22.3360,-57.3590,33.8500
2.6903,0.0570,-0.0330,1.2010,9.0380,22.5500,-57.6340,33.8000
2.6977,0.0490,-0.0240,1.1990,10.1370,21.7710,-57.7400,33.7500
2.7096,0.0380,-0.0070,1.1670,12.1830,21.8170,-56.2750,33.7100
2.7165,0.0490,-0.0040,1.1300,8.5650,21.4960,-56.0460,33.8000
2.7285,0.0540,-0.0060,1.0990,6.5950,17.1150,-54.8240,33.7500
2.7357,0.0440,-0.0210,1.0920,6.8400,14.0000,-54.9310,33.8000
2.7477,0.0460,-0.0280,1.1230,-3.5880,11.4350,-56.6260,33.6600
2.7598,0.0500,-0.0550,1.1560,-12.3510,11.9690,-55.9850,33.7500
2.7665,0.0420,-0.0750,1.2090,-16.1070,20.3510,-56.6870,33.8000
2.7789,0.0680,-0.0690,1.2060,-13.6640,2.7020,-52.8240,33.7500
2.7859,0.0650,-0.0480,1.2140,-0.4580,19.0990,-48.2290,33.8000
2.7978,0.0550,-0.0380,1.1780,-12.5340,14.6410,-49.1600,33.8500
2.8099,0.0690,-0.0200,1.1930,-16.0000,16.9310,-51.2670,33.7500
2.8165,0.0680,-0.0150,1.1360,-11.5270,15.2210,-51.5880,33.8000
2.8284,0.0800,-0.0090,1.1460,-3.2820,13.7860,-50.6260,33.7500
2.8358,0.0710,-0.0100,1.1910,3.7400,14.2900,-52.1070,33.7100
2.8478,0.0840,-0.0200,1.1780,2.5190,13.7560,-51.3130,33.7100
2.8601,0.0730,-0.0410,1.1960,-0.8400,17.2820,-51.3440,33.8500
2.8668,0.0800,-0.0240,1.1940,-7.3740,17.6490,-52.7330,33.8000
2.8791,0.0740,-0.0390,1.1910,-11.1300,22.0000,-52.2290,33.7500
2.8861,0.0690,-0.0380,1.2170,-13.6950,22.2750,-51.6030,33.7500
2.8978,0.0410,-0.0300,1.1970,-18.0760,27.0080,-52.6560,33.7100
2.9098,0.0600,-0.0240,1.1830,-4.3820,27.8320,-49.1450,33.7500
2.9168,0.0580,-0.0450,1.1500,-0.1680,22.3210,-51.1150,33.8000
2.9289,0.0510,-0.0500,1.2030,-1.4350,24.8240,-51.0990,33.7500
2.9361,0.0660,-0.0350,1.2490,-10.2440,25.7250,-51.4960,33.7500
2.9480,0.0570,-0.0350,1.2270,-11.9390,30.3050,-50.3820,33.7100
2.9598,0.0590,-0.0130,1.2190,-9.4050,30.8550,-50.4120,33.8500
2.9669,0.0450,-0.0190,1.2150,-9.0990,32.4890,-50.7940,33.8000
2.9789,0.0480,-0.0150,1.2190,-8.7790,31.2820,-54.0760,33.8000
2.9861,0.0380,-0.0200,1.2140,0.6560,30.6410,-54.4430,33.7500
2.9981,0.0180,-0.0560,1.1830,4.9470,31.4050,-55.2210,33.8000
3.0103,0.0080,-0.0710,1.2100,2.8090,31.6030,-54.1830,33.7500
3.0170,0.0090,-0.0890,1.1800,0.2290,31.0080,-52.2750,33.6600
3.0294,0.0150,-0.0930,1.1930,0.8090,30.0000,-49.8470,33.7100
3.0364,0.0270,-0.0870,1.2020,2.6260,28.7330,-45.3740,33.7500
3.0486,0.0380,-0.0590,1.1880,-15.1910,30.1220,-47.5730,33.7100
3.0606,0.0570,-0.0210,1.1550,-15.8470,25.5730,-46.2440,33.8500
3.0673,0.0370,-0.0050,1.1580,-6.2750,28.5040,-46.8090,33.7500
3.0795,0.0500,0.0220,1.1720,-3.7250,27.9080,-47.7400,33.7100
3.0868,0.0520,0.0210,1.1430,-4.9770,19.8780,-51.2520,33.6600
3.0989,0.0410,-0.0040,1.1450,6.1980,21.6340,-49.7100,33.8000
3.1060,0.0350,-0.0420,1.1470,12.3210,16.8400,-50.0610,33.8000
3.1178,0.0270,-0.0590,1.1690,5.9690,16.5040,-51.0080,33.7500
3.1300,0.0200,-0.0490,1.1710,0.6410,16.5500,-50.1530,33.8000
3.1372,0.0190,-0.0540,1.1450,2.3050,14.9010,-47.8780,33.7500
3.1493,0.0210,-0.0580,1.1290,3.8470,12.1830,-47.6490,33.7500
3.1564,0.0270,-0.0490,1.1360,0.9620,12.4430,-46.8090,33.8000
3.1683,0.0420,-0.0330,1.1450,-5.1300,14.4120,-48.0760,33.7500
3.1807,0.0560,-0.0170,1.1600,-7.5420,10.6560,-48.4270,33.7100
3.1875,0.0410,-0.0220,1.1850,-1.2670,9.2670,-47.2370,33.7500
3.1995,0.0590,0.0030,1.1740,9.3590,13.6640,-44.6560,33.7500
3.2066,0.0830,-0.0500,1.1610,7.0380,10.3360,-38.6720,33.8000
3.2189,0.0760,-0.0600,1.1580,4.4730,12.9010,-41.6950,33.7500
3.2258,0.0670,-0.0550,1.1790,3.5270,12.0150,-38.4430,33.8000
3.2383,0.0740,-0.0550,1.1880,8.3210,12.7180,-38.4730,33.8000
3.2503,0.0810,-0.0290,1.1770,4.3970,13.3590,-40.2600,33.7500
3.2574,0.0720,-0.0120,1.1950,-2.2440,15.9850,-43.8020,33.8000
3.2694,0.0710,-0.0100,1.1830,-3.6490,19.2060,-47.2670,33.7500
3.2766,0.0570,-0.0240,1.1610,-0.8550,21.0530,-48.7790,33.8500
3.2884,0.0540,-0.0530,1.1450,-2.3820,18.2750,-50.9770,33.7100
3.3004,0.0390,-0.0590,1.1570,-1.3740,20.5340,-48.2900,33.7500
3.3073,0.0430,-0.0560,1.1640,1.0080,20.7480,-46.3970,33.8000
3.3195,0.0500,-0.0470,1.1850,-0.2600,21.0530,-46.1070,33.7500
3.3265,0.0520,-0.0400,1.1930,1.5880,21.4350,-45.4960,33.7500
3.3386,0.0530,-0.0460,1.2040,4.0310,23.7560,-46.4270,33.7100
3.3457,0.0450,-0.0440,1.2050,-1.2370,26.7790,-46.5190,33.7500
3.3578,0.0530,-0.0430,1.1780,-4.9310,27.8170,-46.7480,33.7100
3.3700,0.0650,-0.0340,1.1670,-6.1830,27.6340,-47.4660,33.7100
3.3770,0.0610,-0.0110,1.1790,-11.4810,28.1830,-48.3820,33.7500
3.3888,0.0640,-0.0060,1.1890,-7.8470,28.2600,-49.0990,33.7100
3.3959,0.0610,-0.0230,1.1860,1.6950,29.5110,-48.7330,33.8500
3.4081,0.0480,-0.0340,1.1710,4.0000,28.5340,-45.3130,33.8000
3.4203,0.0400,-0.0420,1.1680,5.8780,28.4580,-44.0460,33.8000
3.4272,0.0410,-0.0460,1.1460,-0.7630,28.5800,-45.1450,33.7500
3.4392,0.0440,-0.0230,1.1360,-3.7100,26.3050,-45.9540,33.8000
3.4461,0.0450,-0.0230,1.1510,-2.5040,24.9770,-45.8170,33.7500
3.4582,0.0400,-0.0310,1.1770,-2.5950,25.5880,-46.1830,33.7500
3.4705,0.0390,-0.0250,1.1860,-4.3510,26.8400,-47.2520,33.8000
3.4775,0.0390,-0.0140,1.1980,-5.2820,28.0920,-47.6490,33.8500
3.4894,0.0390,-0.0230,1.2090,-6.8400,29.8470,-48.3970,33.8000
3.4964,0.0370,-0.0190,1.2040,-12.2140,32.1830,-49.6180,33.8500
3.5083,0.0290,-0.0280,1.1940,-14.6410,32.9310,-50.7180,33.8500
3.5206,0.0110,-0.0490,1.1870,-14.3820,30.5650,-51.8470,33.8000
3.5275,-0.0180,-0.0960,1.1850,-7.1910,34.2750,-52.7790,33.7500
3.5392,-0.0350,-0.1040,1.2130,-7.1450,32.1680,-52.6410,33.8000
3.5463,-0.0470,-0.1230,1.2260,-11.9690,34.9620,-50.2900,33.8000
3.5581,-0.0410,-0.1310,1.1800,-14.4580,33.4500,-43.9390,33.7500
3.5702,-0.0150,-0.1060,1.1840,-10.1530,31.1760,-39.0080,33.7100
3.5771,0.0100,-0.0800,1.1850,-3.2520,31.9690,-35.2060,33.7500
3.5888,0.0320,-0.0350,1.2120,1.1760,31.8630,-36.0460,33.7500
3.5961,0.0230,-0.0190,1.2270,0.0150,34.8850,-39.7100,33.7100
3.6082,0.0180,-0.0180,1.2090,-6.2440,37.8170,-42.9010,33.7500
3.6203,0.0070,-0.0050,1.1870,-12.6720,41.3130,-43.7400,33.8000
3.6273,-0.0100,-0.0150,1.1300,-14.4430,40.4270,-43.5420,33.7500
3.6393,-0.0180,-0.0140,1.1000,-9.7400,37.2210,-43.6180,33.7500
3.6458,-0.0220,-0.0030,1.0930,-5.6340,35.7250,-41.8930,33.6600
3.6577,-0.0140,-0.0020,1.1070,-7.8780,32.7020,-42.3970,33.7500
3.6698,-0.0210,-0.0090,1.0920,-9.9240,30.8400,-44.4730,33.7100
3.6768,-0.0220,-0.0260,1.1020,-11.8020,26.4430,-45.8630,33.7500
3.6886,-0.0150,-0.0320,1.1340,-16.6560,22.9920,-47.9390,33.7500
3.7006,-0.0050,-0.0210,1.1580,-20.3050,19.8470,-47.5880,33.7100
3.7073,-0.0070,-0.0370,1.2190,-6.4270,29.0530,-46.7180,33.7500
3.7194,-0.0060,-0.0630,1.2620,-9.5880,26.0460,-48.0000,33.8000
3.7261,-0.0130,-0.0580,1.2750,-7.3130,25.6340,-47.4050,33.8000
3.7384,-0.0360,-0.0870,1.2730,-2.7480,28.7020,-47.7710,33.7500
3.7502,-0.0300,-0.0820,1.2550,0.8550,29.9390,-48.2900,33.8000
3.7572,-0.0540,-0.0910,1.2600,-2.5650,32.2750,-48.9620,33.7500
3.7694,-0.0570,-0.0920,1.2320,-9.2210,32.3050,-50.3510,33.8000
3.7763,-0.0650,-0.1050,1.1590,-3.5420,29.8470,-52.1680,33.7500
3.7883,-0.0780,-0.1450,1.1600,0.1530,23.9540,-47.6640,33.6600
3.8002,-0.0890,-0.1530,1.1780,-2.5800,20.3510,-45.0230,33.7100
3.8074,-0.0880,-0.1560,1.2180,1.8170,20.3050,-41.6790,33.6600
3.8192,-0.0870,-0.1500,1.2260,7.5270,20.3820,-38.8400,33.8500
3.8260,-0.0780,-0.1460,1.2190,0.9620,21.8320,-42.9160,33.8000
3.8381,-0.0790,-0.1180,1.1980,-2.2750,21.1300,-36.9160,33.7500
3.8504,-0.0660,-0.1150,1.1940,0.7630,22.6260,-42.9770,33.7100
3.8571,-0.0580,-0.1020,1.2280,5.8170,24.1220,-39.9690,33.7500
3.8694,-0.0620,-0.1180,1.2240,4.4580,29.1910,-35.8780,33.8500
3.8763,-0.0400,-0.0840,1.2120,0.9010,33.5570,-30.7020,33.8000
3.8884,-0.0190,-0.0140,1.1940,4.0000,36.8850,-23.5270,33.7500
3.9004,-0.0120,0.0440,1.1560,-8.4430,39.5110,-13.7860,33.7100
3.9073,0.0150,0.0820,1.1380,-15.0230,40.9770,-11.0230,33.7500
3.9193,0.0110,0.0990,1.0800,-18.3360,38.6110,-19.0230,33.7500
3.9265,0.0120,0.1050,1.0350,-19.0840,32.6720,-27.2210,33.8000
3.9385,0.0150,0.1060,1.0290,-12.9160,24.8850,-35.7250,33.6600
3.9505,-0.0050,0.0540,1.0680,-1.9390,17.6790,-40.1680,33.8000
3.9574,-0.0340,-0.0410,1.0990,9.9240,12.2600,-41.0080,33.8000
3.9695,-0.0540,-0.1100,1.1430,15.9390,11.2210,-38.1680,33.7500
3.9765,-0.0480,-0.1460,1.1670,7.0230,13.4350,-32.4430,33.8900
3.9889,-0.0340,-0.1160,1.1670,-9.8780,18.1370,-31.1150,33.6600
