Time,AX,AY,AZ,GX,GY,GZ,T
0.0000,-0.0400,-0.1050,1.1880,4.9160,3.4350,-40.3660,33.9400
0.0004,-0.0430,-0.1210,1.2110,7.9850,2.5500,-36.4730,33.9400
0.0007,-0.0310,-0.1300,1.2080,7.6030,5.6490,-35.6950,33.8900
0.0010,-0.0080,-0.0940,1.2010,2.6410,9.6030,-35.5270,33.9400
0.0014,0.0060,-0.0690,1.1930,1.6640,12.7020,-36.1220,33.9400
0.0017,0.0070,-0.0400,1.1580,3.3130,13.0080,-36.6110,33.9400
0.0020,0.0200,-0.0310,1.1210,2.5340,10.6560,-39.6490,33.9400
0.0023,-0.0010,-0.0150,1.1230,-0.9010,8.1830,-43.4500,33.9900
0.0027,0.0020,-0.0010,1.1210,-0.8240,7.9850,-46.5650,33.9900
0.0030,-0.0030,-0.0110,1.1460,-0.8240,9.0380,-47.9690,33.9400
0.0034,0.0040,-0.0420,1.1520,-1.4810,8.5950,-48.6720,33.9900
0.0038,0.0040,-0.0560,1.1400,-0.8090,8.4270,-46.3660,33.8500
0.0042,0.0050,-0.0480,1.1160,-2.1980,9.2820,-44.9160,33.9400
0.0047,-0.0010,-0.0780,1.1190,-5.7710,10.2290,-43.9540,33.9900
0.0052,-0.0070,-0.0810,1.1440,-7.4810,9.2670,-45.1150,33.9400
0.0056,-0.0120,-0.0730,1.1960,-8.5340,8.2290,-40.8850,33.8900
0.0062,-0.0100,-0.0660,1.2100,-7.2520,11.4200,-38.3050,33.9900
0.0067,-0.0030,-0.0320,1.1940,-8.8700,16.2750,-35.2670,33.9400
0.0071,-0.0130,-0.0060,1.1350,-7.8930,19.8630,-35.6340,33.8900
0.0075,-0.0100,-0.0040,1.1310,-13.6640,21.4200,-40.3820,33.9400
0.0080,-0.0100,-0.0080,1.0970,-20.1370,17.4050,-45.3440,34.0400
0.0083,-0.0030,0.0120,1.0840,-25.4660,14.3820,-50.6720,33.8900
0.0087,0.0230,0.0320,1.0940,-23.8470,11.3280,-54.0460,33.9400
0.0091,0.0230,0.0080,1.1150,-11.3590,5.7400,-55.7560,33.8900
0.0094,0.0000,-0.0690,1.1570,5.3890,2.9770,-55.8630,33.9400
0.0099,0.0020,-0.1360,1.1770,2.6260,-0.7790,-55.7100,33.9400
0.0103,-0.0150,-0.1630,1.2260,4.7940,4.1220,-52.0920,33.9900
0.0106,0.0140,-0.1570,1.2100,9.6640,1.2980,-50.6560,34.0400
0.0110,-0.0110,-0.1650,1.2550,4.7630,4.6410,-48.6260,34.0400
0.0113,-0.0160,-0.1510,1.2720,0.1070,7.3890,-41.4050,33.8900
0.0117,0.0010,-0.1430,1.2530,-8.0920,13.3890,-36.8400,34.0400
0.0120,0.0270,-0.0860,1.2510,-15.5420,16.9010,-33.0380,33.8900
0.0123,0.0640,-0.0460,1.2000,-17.2820,18.4430,-31.4200,33.8900
0.0126,0.0760,-0.0300,1.1630,-12.6720,21.5270,-37.7250,33.9400
0.0130,0.0860,-0.0210,1.1850,-15.5730,19.8320,-45.8170,33.8900
0.0133,0.0630,-0.0470,1.1760,-21.9690,17.8930,-49.4200,33.9400
0.0136,0.0400,-0.0830,1.2090,-12.9010,16.8550,-51.4350,33.8500
0.0146,0.0410,-0.1310,1.2190,-11.2520,19.1450,-52.1220,33.9400
0.0152,0.0180,-0.1550,1.1950,-10.7790,19.6790,-49.1910,33.9400
0.0156,0.0030,-0.1530,1.2150,-2.8700,14.1680,-41.9540,33.8900
0.0162,0.0140,-0.1460,1.1900,0.6260,18.9160,-41.9690,33.9900
0.0166,0.0200,-0.1340,1.1840,-6.8850,17.0080,-44.9310,33.8500
0.0170,-0.0100,-0.1190,1.1840,-6.1830,19.1450,-44.6870,33.8900
0.0174,0.0120,-0.1230,1.1630,-8.6720,23.1300,-47.4660,33.8500
0.0178,0.0020,-0.1230,1.1670,-12.2900,16.3660,-47.5570,33.9400
0.0181,0.0070,-0.1190,1.1710,-14.5650,17.0230,-50.0760,33.8900
0.0184,0.0040,-0.1300,1.1680,-10.0310,15.2210,-51.3280,33.9400
0.0187,-0.0040,-0.1360,1.1990,-2.8240,15.1150,-52.1680,33.8000
0.0191,-0.0050,-0.1350,1.2110,-4.4270,15.9850,-49.9080,33.9400
0.0197,-0.0190,-0.1520,1.2790,-4.5650,12.3820,-48.7330,33.9400
0.0201,-0.0110,-0.1770,1.2390,-12.1680,17.7860,-46.0760,33.8900
0.0204,-0.0050,-0.1860,1.2190,-14.7940,20.7940,-46.1530,33.9400
0.0208,-0.0110,-0.1770,1.2190,-13.1150,21.2210,-44.1830,33.8900
0.0211,-0.0020,-0.1490,1.1820,-8.4430,19.7400,-45.1450,33.8000
0.0214,-0.0010,-0.1290,1.1720,-2.6870,17.7400,-45.0230,33.9400
0.0221,-0.0020,-0.1130,1.1950,3.6490,15.9540,-43.6950,33.8900
0.0224,-0.0030,-0.1240,1.2110,1.5880,16.7020,-43.5420,34.0400
0.0227,-0.0010,-0.1250,1.2160,-4.2600,16.4730,-43.1300,33.9400
0.0229,0.0010,-0.1150,1.1920,-3.4810,17.0230,-42.4580,33.9900
0.0232,0.0100,-0.1170,1.1630,-2.2440,18.6260,-43.7860,33.9400
0.0235,0.0110,-0.1200,1.1620,-6.9620,17.2670,-44.6410,33.8900
0.0238,0.0080,-0.1030,1.1770,-8.2750,16.0610,-45.7250,33.8900
0.0241,0.0010,-0.0950,1.1940,-6.4430,15.4960,-45.8930,33.8500
0.0244,0.0080,-0.0880,1.1980,-3.8470,15.8630,-46.3210,33.9900
0.0247,0.0160,-0.0940,1.1980,-5.1600,17.6950,-48.7020,33.9400
0.0249,0.0040,-0.1140,1.1640,-2.2600,17.7250,-48.3210,33.8500
0.0252,0.0000,-0.1450,1.1530,2.6410,17.1760,-48.5190,33.9900
0.0255,0.0020,-0.1510,1.1480,7.2820,13.8930,-48.1220,33.9400
0.0258,0.0040,-0.1360,1.1810,10.5340,12.0920,-44.5500,33.8900
0.0260,0.0060,-0.1390,1.2070,9.5730,12.3970,-44.7480,33.8500
0.0263,0.0060,-0.1200,1.2380,3.6030,15.7100,-46.0920,34.0400
0.0266,0.0080,-0.1220,1.2170,-0.3820,19.1760,-46.5190,33.9900
0.0269,0.0080,-0.1160,1.2030,-1.9540,20.3210,-49.0530,33.8500
0.0272,0.0100,-0.0960,1.1760,5.3590,19.0080,-47.5270,33.9400
0.0274,0.0300,-0.1050,1.1580,11.2980,16.4730,-49.8020,33.9900
0.0277,0.0220,-0.0960,1.1560,9.5880,12.8090,-52.1680,33.9400
0.0280,0.0280,-0.0900,1.1790,6.9470,12.2440,-52.8550,33.8900
0.0283,0.0160,-0.0960,1.2150,11.0840,11.7100,-52.8400,33.8900
0.0285,0.0090,-0.1150,1.2280,11.5880,18.3360,-51.6180,33.9400
0.0288,-0.0010,-0.1080,1.2190,5.6340,17.2060,-49.8630,33.8900
0.0291,-0.0050,-0.1040,1.1830,4.9620,17.4810,-48.2750,33.9400
0.0294,-0.0000,-0.1060,1.1330,8.6260,19.6640,-48.4730,33.9900
0.0297,0.0030,-0.1040,1.1070,8.0760,19.0380,-51.1910,33.9400
0.0299,0.0020,-0.0950,1.0910,-0.4270,14.0760,-54.4270,33.9400
0.0302,-0.0070,-0.0920,1.1150,-2.7180,10.0000,-56.9310,33.8900
0.0304,-0.0120,-0.0980,1.1660,1.6640,5.9690,-56.2440,33.9400
0.0311,-0.0040,-0.0850,1.1830,7.1600,5.2370,-55.1150,33.9400
0.0314,-0.0030,-0.0840,1.1850,8.9770,6.6720,-54.4270,33.8900
0.0317,0.0050,-0.0940,1.1840,8.8850,8.1830,-54.0460,33.9400
0.0319,0.0210,-0.0910,1.1600,8.3970,8.4890,-52.9470,33.9900
0.0322,0.0180,-0.1030,1.1450,11.3740,6.7330,-52.3970,33.9900
0.0324,0.0260,-0.1020,1.1690,17.2520,4.5500,-52.1530,33.8500
0.0326,0.0210,-0.1030,1.2040,16.3820,3.8470,-51.5420,33.8900
0.0329,0.0300,-0.1030,1.2260,13.9390,6.1830,-49.8930,33.9400
0.0331,0.0370,-0.0950,1.2170,11.8930,12.4580,-48.0610,33.8500
0.0334,0.0460,-0.0820,1.2130,4.8240,16.6720,-48.3050,33.8900
0.0336,0.0620,-0.0520,1.1580,-1.6030,20.0310,-49.3130,33.9400
0.0339,0.0640,-0.0280,1.1380,2.9920,19.3440,-48.2290,33.8900
0.0341,0.0690,-0.0110,1.1000,14.1530,17.3280,-46.6260,33.8900
0.0344,0.0740,-0.0210,1.0970,11.9240,16.0610,-51.7100,33.8500
0.0346,0.0640,-0.0350,1.0980,0.7940,13.0990,-51.7400,33.9900
0.0349,0.0630,-0.0120,1.1280,-3.4960,13.8020,-50.7630,33.9400
0.0351,0.0660,0.0050,1.1790,-6.4430,15.6180,-51.6640,33.8500
0.0354,0.0660,-0.0040,1.1910,-6.7020,18.2900,-49.0990,33.8900
0.0356,0.0630,-0.0240,1.1830,-9.9240,21.0990,-49.9390,33.9400
0.0359,0.0640,-0.0220,1.1800,-10.7630,22.7330,-51.1450,33.8900
0.0361,0.0690,-0.0300,1.1590,-7.9850,22.8400,-52.6260,33.9900
0.0363,0.0630,-0.0450,1.1430,-5.5730,21.3740,-52.7630,33.9400
0.0365,0.0490,-0.0670,1.1610,-6.0920,19.5570,-52.1070,33.9900
0.0368,0.0520,-0.0540,1.1960,-9.8170,19.7560,-51.2670,33.9400
0.0370,0.0500,-0.0510,1.2250,-12.3820,22.2600,-52.0310,33.8900
0.0372,0.0350,-0.0720,1.2280,-13.2210,25.0990,-52.7330,33.8900
0.0374,0.0280,-0.0820,1.2250,-12.4270,28.2140,-51.9390,33.9400
0.0377,0.0250,-0.0990,1.1870,-8.0150,27.9080,-50.0310,33.9900
0.0379,0.0190,-0.1140,1.1540,-3.6180,26.2750,-50.4430,33.9400
0.0381,0.0120,-0.1480,1.1460,3.2670,21.8170,-46.5040,33.9400
0.0383,0.0140,-0.1610,1.1300,5.1150,18.3510,-44.7180,33.8900
0.0386,0.0160,-0.1540,1.1600,0.8700,15.8020,-42.8850,33.9400
0.0388,0.0150,-0.1360,1.1770,1.5110,15.5880,-36.9770,33.8900
0.0392,0.0300,-0.0860,1.1860,0.3970,18.0610,-34.7940,33.8900
0.0394,0.0350,-0.0580,1.1860,-1.5570,18.8090,-32.3820,33.8500
0.0396,0.0430,-0.0330,1.1620,3.5110,17.1150,-28.9620,33.8900
0.0398,0.0310,-0.0450,1.1660,6.0760,15.6340,-32.5650,33.8900
0.0400,0.0340,-0.0560,1.1720,9.1300,14.5650,-36.1680,33.9400
0.0403,0.0370,-0.0500,1.1990,4.5190,16.1220,-40.7020,33.9900
0.0405,0.0400,-0.0520,1.2080,-2.0310,19.1300,-43.9690,33.9400
0.0407,0.0320,-0.0600,1.1980,-6.3210,22.5800,-44.6560,33.9400
0.0409,0.0390,-0.0630,1.1810,-5.5730,23.0080,-42.6110,33.8500
0.0412,0.0500,-0.0620,1.1600,-2.9920,22.0920,-41.8470,33.8500
0.0414,0.0590,-0.0410,1.1350,-4.0760,20.8090,-43.7710,33.8900
0.0416,0.0610,-0.0510,1.1540,-3.9850,19.0380,-44.2440,33.9400
0.0418,0.0600,-0.0660,1.1670,-3.9690,17.7710,-45.3740,33.8500
0.0419,0.0710,-0.0520,1.1950,-6.3050,18.3660,-45.7400,33.8900
0.0420,0.0640,-0.0490,1.2190,-5.0990,20.5650,-44.7330,33.9400
0.0422,0.0620,-0.0500,1.2200,-3.0840,22.6260,-44.9470,33.9900
0.0423,0.0470,-0.0680,1.2170,-1.4050,25.0380,-44.1980,33.8900
0.0425,0.0410,-0.0870,1.1740,-2.9160,26.7630,-44.3510,33.8500
0.0426,0.0460,-0.0760,1.1530,-3.8780,25.5730,-44.8400,33.9900
0.0427,0.0310,-0.0940,1.1290,-2.1070,24.4580,-44.9920,33.9400
0.0429,0.0300,-0.0950,1.1390,-4.7480,21.3890,-44.8090,33.9400
0.0430,0.0250,-0.0810,1.1510,-6.6110,18.6870,-45.2980,34.0400
0.0432,0.0290,-0.0700,1.1880,-4.5650,17.8020,-45.7710,33.9400
0.0433,0.0310,-0.0660,1.1880,-3.1300,18.6720,-45.2520,33.8900
0.0435,0.0300,-0.0740,1.2110,2.2600,18.9160,-44.4120,34.0800
0.0436,0.0380,-0.0780,1.1980,3.0840,20.1370,-44.5190,33.9400
0.0437,0.0520,-0.0800,1.1790,-1.5420,20.1370,-45.4500,33.8900
0.0439,0.0640,-0.0780,1.1510,-5.9240,20.1220,-45.2980,33.9400
0.0441,0.0630,-0.0710,1.1850,-4.7790,19.0840,-46.4430,33.9400
0.0443,0.0700,-0.0520,1.2020,0.4890,19.0080,-45.2370,33.8900
0.0445,0.0580,-0.0570,1.2210,2.4270,19.8630,-44.6870,33.8500
0.0447,0.0570,-0.0740,1.2190,0.0760,22.3360,-44.6720,33.9900
0.0449,0.0610,-0.0640,1.1980,-2.8550,24.7630,-47.6030,33.9900
0.0451,0.0660,-0.0580,1.1830,1.5570,25.6340,-45.9240,33.9400
0.0453,0.0490,-0.0800,1.1580,2.9310,25.0690,-46.8550,33.9900
0.0455,0.0360,-0.0680,1.1490,1.3130,22.5950,-45.7710,33.9400
0.0458,0.0730,-0.0560,1.1870,-6.3510,19.5110,-44.4430,33.8500
0.0460,0.0830,-0.0520,1.1700,-6.3210,20.2600,-44.2290,33.9400
0.0462,0.0900,-0.0540,1.1640,-4.0310,20.0310,-43.0530,33.9900
0.0464,0.0830,-0.0790,1.1790,-4.8240,20.2750,-43.6340,33.9400
0.0466,0.0880,-0.0440,1.1870,-6.9770,20.5040,-42.8400,33.8900
0.0554,0.0910,-0.0450,1.1860,-7.8630,21.6180,-44.9620,33.9400
0.0675,0.0940,-0.0360,1.1910,-9.0530,22.6260,-48.2900,33.8500
0.0743,0.0870,-0.0380,1.2080,-12.3820,23.6640,-49.8470,33.8900
0.0866,0.0850,-0.0620,1.1980,-11.0840,24.9160,-51.4810,33.8500
0.0932,0.0680,-0.0870,1.1900,-7.5110,24.3210,-51.1760,33.9900
0.1054,0.0690,-0.0960,1.1970,-3.6790,24.0610,-48.0460,33.8900
0.1175,0.0720,-0.0890,1.1980,-0.1980,23.9240,-46.1070,33.9400
0.1244,0.0640,-0.0750,1.1870,-2.7330,23.9850,-44.9470,33.8000
0.1364,0.0670,-0.0420,1.1900,-1.5880,23.6490,-44.2440,33.9400
0.1434,0.0600,-0.0410,1.1730,1.3590,23.5270,-45.7860,33.9400
0.1557,0.0520,-0.0580,1.1690,-0.5500,21.7710,-46.5340,33.8900
0.1625,0.0600,-0.0670,1.1560,-1.0380,21.1450,-48.0310,33.9400
0.1748,0.0600,-0.0620,1.1420,1.0080,19.4050,-47.9390,33.8900
0.1871,0.0510,-0.0790,1.1490,4.3970,17.2060,-46.6870,33.8500
0.1937,0.0450,-0.0890,1.1580,7.2980,11.6950,-43.3890,33.9400
0.2064,0.0660,-0.0730,1.1440,2.1680,13.6030,-42.9160,33.8900
0.2131,0.0640,-0.0700,1.1670,-4.0310,16.5800,-42.9770,33.9400
0.2253,0.0860,-0.0480,1.1850,-4.3820,16.3970,-42.5950,33.9400
0.2374,0.1010,-0.0250,1.1890,-9.2670,18.5650,-45.9240,33.8900
0.2444,0.1060,-0.0170,1.1520,-9.0690,18.4580,-48.6410,33.9400
0.2563,0.1060,-0.0100,1.1530,-6.5040,19.4810,-52.5650,33.8900
0.2635,0.0910,-0.0130,1.1620,-4.0150,17.9240,-52.9310,33.8900
0.2753,0.0780,-0.0220,1.1630,-9.0690,17.7560,-54.6410,33.8500
0.2877,0.0600,-0.0370,1.1720,-11.4350,18.3660,-54.3510,33.9900
0.2946,0.0500,-0.0530,1.1910,-10.3970,18.7790,-53.8170,33.9400
0.3063,0.0390,-0.0820,1.2210,-7.0840,21.0080,-51.8470,33.8900
0.3135,0.0370,-0.0850,1.2260,-7.3130,22.4890,-51.6180,33.8500
0.3254,0.0360,-0.0930,1.2080,-10.5800,24.0920,-51.2820,33.9400
0.3376,0.0450,-0.0920,1.1700,-9.3890,26.3510,-53.1910,33.8900
0.3446,0.0350,-0.0870,1.1500,-15.0690,25.1450,-54.8240,33.9400
0.3563,0.0630,-0.0800,1.1310,-13.6180,22.7480,-56.5500,33.9400
0.3635,0.0520,-0.0910,1.1490,-8.4730,19.2980,-55.4810,33.8900
0.3753,0.0530,-0.0840,1.1910,-5.8780,19.1450,-54.3050,33.9400
0.3877,0.0470,-0.0850,1.2040,-6.4270,18.0150,-52.5800,33.8900
0.3947,0.0580,-0.0920,1.1950,-2.0460,18.1980,-51.8630,33.8900
0.4067,0.0490,-0.0950,1.2030,-1.6030,19.5420,-51.4200,33.8500
0.4135,0.0600,-0.1020,1.1890,-2.1680,20.5190,-50.8550,33.8900
0.4256,0.0680,-0.0770,1.1920,-0.4730,21.1300,-49.1760,33.9400
0.4377,0.0700,-0.0520,1.1860,-0.4430,21.0080,-44.3970,33.8900
0.4446,0.0750,-0.0580,1.1950,-2.2290,21.9850,-49.4200,33.8500
0.4565,0.0770,-0.0370,1.1940,-1.4810,22.4580,-50.7630,33.8500
0.4637,0.0730,-0.0440,1.1700,1.6030,22.8090,-50.5190,33.8900
0.4760,0.0590,-0.0600,1.1540,1.8170,21.7100,-53.4660,33.9400
0.4826,0.0590,-0.0770,1.1610,0.7790,19.9540,-56.1070,33.9400
0.4950,0.0480,-0.0820,1.1830,0.3510,20.5800,-56.1830,33.8900
0.5071,0.0490,-0.0850,1.2280,-6.0000,23.3890,-54.9620,34.0400
0.5142,0.0480,-0.0850,1.2220,-10.2140,27.1760,-53.4960,33.8900
0.5262,0.0490,-0.0730,1.2090,-9.5420,30.8090,-51.7400,33.9900
0.5328,0.0510,-0.0800,1.1630,-3.5110,29.4960,-50.6560,33.9400
0.5450,0.0480,-0.0760,1.1620,1.1600,27.9390,-50.3360,33.8900
0.5572,0.0410,-0.0730,1.1380,4.6410,25.6490,-50.5040,33.9400
0.5644,0.0260,-0.0910,1.1500,5.1910,23.1760,-51.7400,33.9400
0.5766,0.0320,-0.0960,1.1650,3.2820,19.8320,-52.1830,33.9400
0.5832,0.0230,-0.1090,1.1870,1.6180,21.6180,-52.2900,33.8500
0.5957,0.0410,-0.1050,1.2090,1.5420,20.9310,-52.2140,33.9900
0.6029,0.0420,-0.0990,1.2180,-0.3050,24.0310,-50.9010,33.9900
0.6148,0.0530,-0.0910,1.2030,-0.2440,21.4500,-51.6340,33.8500
0.6269,0.0450,-0.0910,1.2150,3.4500,20.2440,-50.9470,33.9900
0.6338,0.0420,-0.1060,1.2130,5.7710,20.5340,-50.9160,33.9400
0.6463,0.0420,-0.1120,1.2180,4.2900,22.0460,-50.3970,33.9400
0.6532,0.0500,-0.0950,1.2130,2.0460,23.8930,-48.4580,33.8900
0.6652,0.0500,-0.0630,1.1900,1.0230,24.9770,-48.7480,33.8500
0.6777,0.0610,-0.0580,1.1770,-0.5950,24.6410,-49.4050,33.8900
0.6845,0.0620,-0.0330,1.1540,-0.4430,24.6560,-49.2060,33.8900
0.6966,0.0630,-0.0340,1.1170,5.3590,21.5270,-50.4120,33.9400
0.7032,0.0460,-0.0460,1.1270,8.0920,18.2750,-51.6030,33.8900
0.7155,0.0400,-0.0620,1.1390,4.6260,14.7630,-51.2520,33.8500
0.7226,0.0300,-0.0930,1.1640,4.0610,13.0530,-50.4730,33.9400
0.7347,0.0320,-0.0970,1.1880,-2.9010,15.2980,-50.0000,33.8900
0.7471,0.0400,-0.0990,1.2060,-6.8850,18.4120,-49.5270,33.9400
0.7541,0.0440,-0.0730,1.2370,-8.3970,20.7940,-50.4120,33.9900
0.7663,0.0400,-0.0530,1.2040,-2.7330,21.2980,-48.5500,33.9400
0.7731,0.0440,-0.0460,1.1630,1.4350,19.8780,-49.8170,33.9400
0.7853,0.0230,-0.0420,1.1560,1.1600,21.1450,-51.8470,33.8900
0.7973,0.0320,-0.0470,1.1480,-8.4890,12.9470,-53.8470,33.8500
0.8043,0.0560,-0.0290,1.1570,-1.6790,10.2600,-53.2520,33.9400
0.8164,0.0540,-0.0280,1.1900,-8.3660,11.6180,-56.6870,33.9900
0.8230,0.0540,-0.0470,1.1920,-10.6560,12.8700,-56.6410,33.9400
0.8355,0.0470,-0.0750,1.2040,-10.8240,13.6180,-56.9310,33.8900
0.8473,0.0400,-0.0980,1.1910,-9.7100,14.2900,-54.7180,33.9400
0.8543,0.0380,-0.1130,1.1690,-5.5110,15.1150,-52.3210,33.9400
0.8663,0.0410,-0.1150,1.1900,-9.4500,15.6180,-50.3970,33.8900
0.8732,0.0460,-0.0880,1.1880,-11.1760,19.8930,-46.9470,34.0400
0.8855,0.0370,-0.1110,1.1820,-8.5800,20.1680,-43.4810,33.9400
0.8974,0.0340,-0.1070,1.1920,-4.0760,18.4430,-46.0000,33.9400
0.9044,0.0330,-0.0980,1.1740,-3.0530,20.2140,-45.8930,33.9400
0.9165,0.0420,-0.0840,1.1550,-8.8550,18.2140,-47.1150,33.9900
0.9236,0.0570,-0.0710,1.1290,-11.1910,17.9690,-47.6180,33.9400
0.9354,0.0330,-0.0890,1.1340,-8.3970,12.9770,-44.0760,34.0400
0.9475,0.0680,-0.0700,1.1360,-1.1450,10.7630,-42.2900,33.8900
0.9545,0.0630,-0.0930,1.1450,-0.8550,8.3210,-40.0310,33.9400
0.9666,0.0830,-0.0850,1.1460,-2.0610,10.7330,-39.9240,33.8900
0.9736,0.0660,-0.0800,1.1810,-14.4580,13.4050,-42.1070,33.9900
0.9857,0.0820,-0.0410,1.2240,-11.4350,17.6950,-40.0760,33.9400
0.9976,0.0730,-0.0230,1.2090,-6.3820,20.0310,-43.1300,33.8900
1.0045,0.0800,-0.0330,1.2080,-2.1830,21.0840,-44.7330,33.8500
1.0167,0.0740,-0.0660,1.1630,2.1980,19.6340,-44.8550,33.9400
1.0236,0.0870,-0.0710,1.1530,2.8240,17.0230,-48.0460,33.9400
1.0360,0.0810,-0.0840,1.1740,5.0230,16.5650,-47.0690,33.9400
1.0425,0.0730,-0.1110,1.1980,6.4890,18.3510,-49.8170,33.9900
1.0551,0.0650,-0.1240,1.2130,4.1220,21.8320,-50.9920,33.8900
1.0670,0.0580,-0.1390,1.1980,7.3130,25.1150,-48.7940,34.0400
1.0739,0.0770,-0.1460,1.1730,10.2750,26.7020,-47.8630,33.9900
1.0864,0.0690,-0.1380,1.1630,9.5420,26.9920,-44.8090,33.9400
1.0930,0.0810,-0.0940,1.1760,7.8170,26.7790,-42.3970,33.9400
1.1055,0.0820,-0.0830,1.1950,4.1220,28.0150,-42.3820,33.8900
1.1176,0.0880,-0.0320,1.1860,2.3360,30.4430,-42.3820,33.9400
1.1247,0.0950,-0.0160,1.1810,6.7480,32.1680,-42.7180,33.8900
1.1369,0.0820,0.0110,1.1960,5.2980,26.6410,-45.8320,33.8900
1.1442,0.0880,0.0400,1.1790,9.8170,28.9920,-47.6790,33.9400
1.1562,0.0720,0.0020,1.1480,13.0690,27.0080,-52.1830,33.8900
1.1634,0.0560,-0.0450,1.1370,14.0610,24.1680,-55.2820,33.9400
1.1754,0.0530,-0.0930,1.1440,10.4730,22.1370,-56.3360,33.9400
1.1875,0.0350,-0.1240,1.1560,0.6720,22.8850,-59.9080,33.8000
1.1946,0.0380,-0.1470,1.1590,1.4350,23.3890,-55.8170,33.9400
1.2065,0.0340,-0.1450,1.1630,0.9310,24.0920,-53.8020,33.8900
1.2139,0.0540,-0.0830,1.1890,-1.7250,23.0530,-50.6410,33.8500
1.2257,0.0560,-0.0620,1.1820,-0.2290,24.5800,-46.6870,33.9400
1.2325,0.0730,-0.0320,1.1470,0.0150,23.9080,-46.5190,33.8000
1.2450,0.0730,-0.0030,1.1490,-1.9240,22.0610,-47.3890,33.9400
1.2568,0.0740,0.0040,1.1420,1.9240,18.5950,-46.8700,33.8500
1.2638,0.0730,0.0010,1.1350,5.8780,14.8240,-47.6640,33.8900
1.2763,0.0810,0.0210,1.1780,3.1760,14.5500,-51.4810,33.8500
1.2833,0.0820,0.0250,1.1770,-3.4960,15.6340,-55.2520,33.8000
1.2956,0.0830,-0.0080,1.1800,-7.1910,18.3360,-58.3820,33.8900
1.3076,0.0440,-0.0230,1.2030,-6.8850,18.7790,-60.4270,33.9400
1.3145,0.0470,-0.0630,1.2090,-5.6340,18.7630,-60.7020,33.8900
1.3266,0.0350,-0.0880,1.1920,2.0920,16.7790,-56.6560,33.8500
1.3336,0.0340,-0.0940,1.2020,1.4350,18.6110,-55.8930,33.8900
1.3459,0.0360,-0.1100,1.2070,1.1600,18.0000,-53.0840,33.9400
1.3527,0.0450,-0.1130,1.2140,0.9160,21.1910,-51.5570,33.9400
1.3649,0.0360,-0.0930,1.2080,-3.9540,23.9540,-48.9010,33.8900
1.3771,0.0420,-0.0760,1.1750,-5.0990,24.1070,-48.1680,33.8500
1.3838,0.0380,-0.0710,1.1300,-0.5340,22.9470,-46.5650,33.9400
1.3959,0.0220,-0.0640,1.1300,1.6950,25.6490,-45.6490,33.8900
1.4030,0.0650,-0.0580,1.0950,-5.4350,8.9310,-46.3660,33.9400
1.4151,0.0560,-0.0330,1.1230,0.2140,15.0380,-45.4960,33.8900
1.4275,0.0510,-0.0260,1.1350,-2.5800,15.6340,-46.9310,33.8900
1.4341,0.0680,-0.0160,1.1430,-9.2670,16.1220,-47.9690,33.8500
1.4464,0.0730,-0.0180,1.1390,-6.8700,13.3890,-49.0380,33.8900
1.4533,0.0810,-0.0180,1.1660,-7.1450,9.5880,-51.0230,33.9400
1.4654,0.0720,-0.0270,1.1930,-4.2600,10.7330,-51.6030,33.9400
1.4724,0.0680,-0.0280,1.2070,-3.1150,11.4350,-51.9690,33.8900
1.4846,0.0540,-0.0720,1.2160,-4.2750,13.8780,-52.1370,33.9400
1.4967,0.0480,-0.0820,1.1860,-5.0990,15.9390,-51.3590,33.8900
1.5035,0.0440,-0.0940,1.1800,-4.1530,16.8850,-50.8700,33.8000
1.5158,0.0460,-0.0960,1.1540,-3.6490,17.1150,-50.7940,33.8500
1.5225,0.0550,-0.0770,1.0980,0.0310,13.4200,-45.6490,33.9900
1.5348,0.0650,-0.1080,1.0770,8.6870,10.7940,-43.6340,33.8500
1.5471,0.1010,-0.0830,1.0790,9.0530,7.3440,-43.1600,33.9400
1.5543,0.0940,-0.0780,1.0920,5.6790,3.4660,-42.5800,33.9900
1.5666,0.0950,-0.0570,1.1210,3.1300,4.1220,-44.2290,33.8500
1.5735,0.1120,-0.0070,1.1640,-4.3510,6.9160,-45.2980,33.8000
1.5860,0.1150,0.0070,1.1910,-8.9470,10.4580,-47.5420,33.8000
1.5929,0.1320,0.0180,1.1910,-8.7020,12.8090,-52.0310,33.9400
1.6047,0.1410,0.0340,1.2160,-4.9620,13.3130,-52.0920,33.8900
1.6171,0.1350,-0.0120,1.2060,2.1980,13.1150,-54.0610,33.8500
1.6241,0.1260,-0.0360,1.2070,1.5420,15.2670,-55.9080,33.8500
1.6364,0.1150,-0.0590,1.1940,5.6340,15.2820,-53.6640,33.9900
1.6436,0.1070,-0.0790,1.1960,6.8550,17.5570,-53.8320,33.9400
1.6557,0.1000,-0.0930,1.1910,-0.9770,20.9920,-54.0760,33.8900
1.6678,0.0950,-0.0870,1.1790,-7.8780,22.9620,-53.7560,33.9400
1.6747,0.0890,-0.0810,1.1500,-4.8550,24.4270,-53.2210,33.9400
1.6867,0.0870,-0.0790,1.1410,-5.0840,23.5420,-52.7180,33.8900
1.6939,0.0860,-0.0690,1.1360,-5.7100,22.4120,-52.8240,33.9400
1.7058,0.0920,-0.0470,1.1340,-2.8400,20.5340,-51.2820,33.8900
1.7128,0.0830,-0.0530,1.1340,-1.5270,20.4730,-51.3890,33.8000
1.7246,0.0860,-0.0430,1.1470,-4.5040,19.7100,-50.9470,33.9400
1.7367,0.0880,-0.0420,1.1650,-5.2980,20.4430,-52.5040,33.9900
1.7436,0.0910,-0.0420,1.1770,-8.6720,21.1910,-53.2980,33.9400
1.7558,0.1060,-0.0290,1.1700,-4.5340,19.4050,-52.0610,33.9400
1.7629,0.1150,-0.0360,1.1770,-2.5500,19.0530,-54.6260,33.8900
1.7748,0.1250,-0.0460,1.1950,0.1980,18.5500,-56.0760,33.9400
1.7871,0.1310,-0.0610,1.1830,-6.1530,8.2900,-56.2750,33.9900
1.7943,0.1120,-0.0600,1.2010,4.4270,21.8320,-56.1070,33.9400
1.8063,0.1350,-0.0580,1.2490,-6.2600,21.1600,-55.6790,33.9400
1.8133,0.1050,-0.0700,1.2320,-12.0150,24.3820,-54.2750,33.8900
1.8251,0.1040,-0.0650,1.2390,-6.7020,26.6720,-56.4730,33.8500
1.8374,0.0850,-0.0640,1.2180,-0.9920,26.6560,-55.3280,33.8500
1.8444,0.0730,-0.0790,1.2050,7.8470,25.1450,-55.3440,33.9900
1.8564,0.0720,-0.0830,1.2090,11.3740,25.3280,-55.0230,33.9400
1.8636,0.0710,-0.1040,1.2190,11.3440,24.3210,-54.0460,33.8900
1.8753,0.0820,-0.1140,1.2210,6.2140,27.4810,-54.1680,33.8900
1.8876,0.0870,-0.0970,1.1860,2.1980,28.7020,-51.5420,33.9400
1.8944,0.0980,-0.0900,1.1780,1.3440,28.7790,-49.6030,33.8900
1.9070,0.1050,-0.0470,1.1840,1.9540,27.5270,-49.9080,33.9400
1.9141,0.0960,-0.0050,1.2170,-2.2290,27.0690,-51.3740,33.9400
1.9260,0.0970,0.0180,1.2180,-6.3360,27.3440,-53.6790,34.0400
1.9331,0.0970,0.0130,1.2140,-2.9620,26.9470,-53.7860,33.9400
1.9454,0.0910,-0.0010,1.1740,-1.9390,28.3820,-55.9540,33.8900
1.9574,0.0890,-0.0170,1.1810,2.3510,24.1830,-57.2370,33.9400
1.9643,0.0970,-0.0300,1.1480,5.5110,10.3510,-55.5570,33.8500
1.9764,0.0620,-0.0630,1.1790,16.5340,22.0610,-54.9470,33.8900
1.9832,0.0700,-0.0740,1.1790,14.2600,11.4660,-52.6870,33.9400
1.9955,0.0630,-0.0830,1.2100,7.6790,16.7480,-54.1370,33.8900
2.0075,0.0710,-0.0670,1.2100,1.0840,15.6030,-53.6180,33.9900
2.0146,0.0800,-0.0630,1.2010,-2.9620,19.0380,-54.4730,33.9400
2.0270,0.0900,-0.0370,1.1810,-4.5500,17.5420,-54.2600,33.9900
2.0338,0.0830,-0.0410,1.1550,-2.4730,17.5420,-51.7560,33.9400
2.0460,0.0820,-0.0480,1.1320,5.4350,13.6640,-48.4430,33.9400
2.0529,0.0910,-0.0350,1.1670,8.1980,13.8630,-45.6640,33.8900
2.0647,0.1040,-0.0100,1.1720,-1.5420,16.1530,-46.8240,33.9400
2.0772,0.1060,0.0310,1.1750,-15.5110,17.3590,-50.1070,33.8900
2.0838,0.0980,0.0540,1.1650,-15.0530,19.1760,-52.1530,33.8900
2.0962,0.0950,0.0440,1.1440,-8.0610,15.5570,-53.3280,33.8500
2.1034,0.0960,0.0260,1.1250,-2.6110,12.7180,-54.9010,33.8900
2.1152,0.0930,0.0020,1.1470,5.7250,7.2980,-56.0760,33.9400
2.1276,0.0830,-0.0240,1.1850,12.3820,8.7180,-56.4580,33.9400
2.1348,0.0590,-0.0590,1.2040,4.8850,10.6560,-58.6110,33.9900
2.1469,0.0570,-0.0650,1.2050,0.6560,13.3740,-57.7560,33.9400
2.1541,0.0370,-0.0980,1.2000,2.9920,15.8320,-55.9390,33.8900
2.1660,0.0330,-0.1250,1.1480,-0.1070,18.5190,-53.6490,33.8900
2.1728,0.0410,-0.1290,1.1040,2.2600,15.6950,-47.9690,33.9400
2.1851,0.0630,-0.1070,1.0830,7.8780,10.4120,-45.7860,33.8900
2.1973,0.0790,-0.0600,1.1080,2.5040,10.8240,-44.8550,33.8500
2.2046,0.0930,-0.0230,1.1240,-6.3970,9.5880,-45.6340,33.8500
2.2166,0.1050,0.0250,1.1380,-16.0000,12.9470,-48.5950,33.9900
2.2233,0.1160,0.0400,1.1250,-15.5730,12.7630,-49.4960,33.9400
2.2357,0.1170,0.0740,1.1340,-13.0230,0.4120,-50.1370,33.9900
2.2412,0.1320,0.0670,1.1340,6.6720,16.3050,-47.5570,33.8500
2.2550,0.1580,0.0500,1.1590,-1.1600,11.0080,-50.9620,33.8500
2.2670,0.1390,-0.0090,1.1460,2.7020,9.1300,-52.2900,33.8900
2.2744,0.1220,-0.0480,1.2080,8.3050,10.0610,-51.8630,33.7500
2.2864,0.1130,-0.0490,1.2500,7.4200,15.2520,-50.1830,33.9400
2.2933,0.1050,-0.0790,1.2510,1.9390,21.6030,-48.0150,33.8900
2.3054,0.1050,-0.1040,1.2230,-3.2520,25.8020,-47.9690,33.9400
2.3175,0.1140,-0.0620,1.2090,-12.4730,30.6560,-47.1760,33.8900
2.3243,0.1210,-0.0370,1.1880,-13.7860,33.5110,-46.1220,33.8900
2.3364,0.1390,-0.0060,1.1720,-8.3210,31.3890,-43.3590,33.9400
2.3434,0.1430,0.0100,1.1770,-3.0230,31.8470,-41.8170,33.8900
2.3557,0.1490,0.0330,1.1710,2.9010,30.9920,-42.6260,33.8500
2.3629,0.1430,0.0300,1.1790,2.9770,30.4890,-46.2140,33.8500
2.3748,0.1270,0.0210,1.1760,-4.5650,31.4200,-50.7790,33.8900
2.3872,0.1150,0.0180,1.1750,-10.1070,31.4500,-53.6790,33.8500
2.3941,0.1070,-0.0070,1.1790,-9.5570,31.7100,-52.7790,33.9900
2.4061,0.0890,-0.0410,1.1730,-0.6560,29.8170,-51.2060,33.9900
2.4131,0.1020,-0.0280,1.1800,7.0080,28.5190,-48.6560,33.8500
2.4251,0.0990,-0.0480,1.1810,15.7560,27.3440,-45.7100,33.9900
2.4374,0.1000,-0.0540,1.1940,14.4270,28.9920,-47.4200,33.9400
2.4443,0.0980,-0.0350,1.1990,4.8090,29.9080,-47.5110,33.9400
2.4563,0.0910,-0.0280,1.2040,0.3970,29.6180,-46.9620,33.8900
2.4634,0.1010,-0.0220,1.1880,-1.0230,32.2750,-49.4810,33.7500
2.4754,0.0740,-0.0250,1.2080,0.6560,28.2600,-49.8630,33.9900
2.4817,0.0810,-0.0330,1.2100,7.2980,28.7330,-47.6950,33.9900
2.4948,0.0730,-0.0390,1.2120,7.9240,25.6180,-45.8470,33.9400
2.5068,0.0680,-0.0390,1.1960,3.0690,28.5800,-44.1220,33.9900
2.5140,0.0850,-0.0470,1.1890,-3.4200,26.1530,-43.0840,33.9400
2.5261,0.0860,-0.0260,1.1490,-3.3590,24.1530,-43.0380,33.8500
2.5327,0.0880,-0.0270,1.1520,3.5880,19.3280,-40.5950,33.8900
2.5454,0.0750,-0.0350,1.1980,8.8400,18.1370,-40.7330,33.8500
2.5573,0.0840,-0.0080,1.1850,3.9850,15.8320,-43.8930,33.9900
2.5646,0.0830,-0.0100,1.2150,-9.9390,19.4810,-45.5420,33.9400
2.5764,0.0960,-0.0100,1.2010,-13.5270,19.8020,-45.0080,33.9400
2.5831,0.1080,-0.0130,1.1980,-11.6950,17.9540,-38.7630,33.8900
2.5955,0.0890,-0.0310,1.2320,-3.9390,16.4270,-42.2290,33.9400
2.6073,0.0840,-0.0250,1.1710,2.9620,14.4890,-44.9310,33.8500
2.6143,0.0810,-0.0060,1.1780,-1.9540,16.4270,-47.3280,33.9900
2.6266,0.0870,-0.0070,1.1710,-10.0150,15.7250,-47.2980,33.9400
2.6333,0.0900,-0.0310,1.1650,-10.5950,13.6490,-46.2600,33.8900
2.6454,0.0850,-0.0270,1.1690,-10.5040,13.9390,-47.5570,33.8900
2.6573,0.1160,-0.0120,1.1620,-8.2750,13.7250,-48.4730,33.8500
2.6644,0.1090,-0.0030,1.1680,-1.7250,10.0460,-50.5040,33.8900
2.6765,0.0980,0.0010,1.1970,5.7400,9.0990,-48.0310,33.9400
2.6839,0.1100,-0.0540,1.1880,9.2520,7.8780,-47.5270,33.8500
2.6957,0.1180,-0.0430,1.1940,8.1220,11.2820,-47.0530,33.8900
2.7033,0.1310,-0.0160,1.2030,9.5880,11.8470,-38.9160,33.9400
2.7150,0.1180,-0.0390,1.1660,11.9690,10.9920,-45.0690,33.8900
2.7272,0.1310,-0.0350,1.1950,1.6180,10.8550,-50.8240,33.8900
2.7341,0.1130,-0.0000,1.1720,3.4660,15.2520,-49.6640,33.8500
2.7465,0.0950,-0.0040,1.1950,3.0990,10.7630,-52.0000,33.8900
2.7536,0.1020,-0.0250,1.2050,2.1070,14.3820,-54.7180,33.8500
2.7656,0.1240,-0.0280,1.1380,1.0840,13.1760,-51.4660,33.9400
2.7716,0.1100,-0.0720,1.1610,12.5190,12.7940,-47.5570,33.9900
2.7846,0.0970,-0.0690,1.2160,13.6490,13.2370,-43.8780,33.9400
2.7969,0.0690,-0.0530,1.2430,5.1760,14.0760,-41.6640,33.8900
2.8038,0.1060,-0.0320,1.1900,3.9080,18.0610,-39.7400,33.8000
2.8158,0.0950,-0.0310,1.1970,0.3660,17.8630,-38.6110,33.7500
2.8228,0.1350,0.0050,1.1390,-0.8240,20.9770,-38.9470,33.8000
2.8350,0.1510,0.0440,1.1460,-1.2370,20.8700,-40.1070,33.9400
2.8473,0.1670,0.0720,1.1350,-3.8470,19.6030,-42.5800,33.9400
2.8547,0.1720,0.0790,1.1430,-1.5420,18.1370,-44.5040,33.8900
2.8665,0.1560,0.0570,1.1390,0.6410,18.0000,-47.8630,33.8500
2.8736,0.1460,0.0460,1.1470,2.4890,17.6790,-50.8090,33.9900
2.8859,0.1450,-0.0000,1.1730,8.5950,14.1680,-49.8020,33.8500
2.8931,0.1280,-0.0250,1.2140,13.6950,15.5270,-50.8240,33.9400
2.9051,0.1180,-0.0140,1.2360,10.1980,20.7180,-47.8630,33.8900
2.9171,0.1090,-0.0250,1.1930,6.2900,23.0080,-44.7630,33.9400
2.9240,0.0990,-0.0210,1.1700,-2.0610,27.7250,-43.5730,33.9400
2.9362,0.1160,0.0120,1.1360,-7.7860,25.2670,-44.3360,33.9900
2.9433,0.1240,0.0250,1.1390,-5.1600,22.7790,-45.2670,33.9400
2.9554,0.1450,0.0590,1.1580,-3.8020,23.3590,-47.6640,33.8900
2.9675,0.1550,0.0900,1.1590,1.5420,18.5040,-47.9690,33.8900
2.9747,0.1530,0.0590,1.1880,4.7020,18.9920,-51.7400,33.8500
2.9869,0.1420,0.0370,1.2110,0.4730,22.3510,-57.8780,33.8900
2.9941,0.1290,0.0020,1.1770,-4.2140,23.3590,-58.6870,33.9400
3.0060,0.1240,0.0180,1.1620,-4.7020,21.5110,-58.8550,33.8500
3.0132,0.1140,-0.0040,1.1680,7.9390,17.9540,-52.0920,33.9900
3.0254,0.1090,-0.0410,1.1980,11.8630,18.7790,-52.7790,34.0400
3.0376,0.1000,0.0030,1.2200,3.3130,21.7400,-52.2440,33.9900
3.0448,0.0980,-0.0380,1.1960,1.0230,24.3210,-52.4730,33.9900
3.0567,0.0870,-0.0290,1.1860,-7.4960,21.2820,-53.7400,33.9400
3.0636,0.0770,-0.0130,1.1780,-11.7860,21.6340,-54.3660,33.8900
3.0757,0.0650,-0.0130,1.1580,-8.2750,23.6950,-51.5880,33.9400
3.0826,0.0680,-0.0210,1.1500,-3.0080,22.5950,-53.3590,33.9400
3.0947,0.0640,-0.0120,1.1530,-4.3660,19.4200,-54.7330,33.8900
3.1073,0.0800,-0.0220,1.1730,-8.4580,16.6260,-55.5570,33.8500
3.1137,0.0680,0.0150,1.1880,-4.3210,13.4350,-46.9470,33.9900
3.1257,0.0780,-0.0280,1.1700,1.5880,12.7330,-49.6180,33.8900
3.1327,0.0560,-0.0390,1.1830,7.8780,12.4430,-50.2140,33.9400
3.1450,0.0510,-0.0330,1.1890,8.4430,11.6790,-46.2600,33.8900
3.1571,0.0580,-0.0220,1.1890,2.5040,13.6490,-44.6870,33.8500
3.1641,0.0630,-0.0070,1.1820,-2.6410,17.8930,-43.1300,33.9400
3.1762,0.0780,0.0160,1.1860,-9.8930,18.8400,-41.5880,33.8900
3.1832,0.0800,0.0270,1.1460,-10.6410,19.0080,-43.3590,33.8500
3.1955,0.1000,0.0340,1.1160,-7.2980,18.4270,-42.4730,33.9900
3.2012,0.0950,0.0240,1.0930,-0.5040,14.3510,-43.0530,33.9400
3.2143,0.1040,0.0300,1.1010,4.7180,10.9770,-44.6110,33.9400
3.2271,0.1000,0.0390,1.1310,6.1830,8.8400,-46.8240,33.8900
3.2338,0.0850,0.0190,1.1340,4.8850,10.2140,-48.4580,33.8500
3.2462,0.0680,0.0020,1.1460,1.9850,9.5730,-47.7100,33.9400
3.2535,0.0640,-0.0250,1.1410,2.4120,11.2060,-45.1600,33.8900
3.2657,0.0650,-0.0220,1.1530,1.4350,14.4730,-40.1680,33.8500
3.2727,0.0570,-0.0100,1.1430,0.9310,14.2140,-38.4890,33.8900
3.2848,0.0700,0.0170,1.1420,3.0380,14.2750,-36.5040,33.8900
3.2974,0.0940,0.0240,1.1330,2.0460,17.8470,-35.8780,33.9400
3.3045,0.1130,0.0140,1.1220,-0.3660,16.7330,-36.1070,33.8900
3.3165,0.1160,0.0310,1.1700,2.7940,17.2370,-36.5950,33.8500
3.3237,0.1260,0.0450,1.1750,3.7100,20.8700,-37.6340,33.8500
3.3357,0.1220,0.0420,1.1940,-1.2370,7.9390,-40.5800,33.8500
3.3428,0.0950,0.0330,1.2410,17.6030,35.1760,-36.4270,33.9400
3.3552,0.0940,0.0000,1.1780,4.9620,20.8700,-38.9160,33.9900
3.3674,0.0770,-0.0320,1.1810,-7.6950,22.8400,-42.7630,33.8900
3.3743,0.0870,-0.0180,1.1460,-9.0230,22.1070,-39.5880,33.9400
3.3865,0.1010,0.0030,1.1580,0.1530,20.3050,-34.9470,33.8900
3.3934,0.1150,0.0120,1.1750,0.5800,18.8400,-33.0380,33.9400
3.4059,0.1330,0.0340,1.2150,2.8850,19.7250,-32.5340,33.9400
3.4132,0.1230,0.0320,1.2630,8.1370,30.1530,-32.8400,33.8900
3.4251,0.1480,0.0460,1.2160,1.4050,25.6790,-38.3970,33.9400
3.4374,0.1220,0.0310,1.2450,-6.0920,26.9920,-43.6640,33.8000
3.4446,0.1090,0.0240,1.2610,-1.1150,26.9470,-44.0310,33.8900
3.4567,0.1020,-0.0050,1.2650,1.9080,25.9690,-41.5110,33.8500
3.4638,0.0810,-0.0170,1.2470,2.9770,26.5340,-41.2670,33.8900
3.4761,0.0770,-0.0370,1.2390,5.8470,27.0380,-41.8930,33.8500
3.4824,0.0540,-0.0500,1.2240,-1.1910,28.8400,-44.0310,33.8500
3.4946,0.0420,-0.0420,1.2240,-10.5340,28.6870,-45.2520,33.8900
3.5069,0.0440,-0.0390,1.2350,-11.0380,28.3510,-42.4270,33.8500
3.5138,0.0520,-0.0180,1.2450,-12.6870,28.6110,-40.8400,33.8900
3.5258,0.0620,-0.0060,1.2440,-18.8400,28.8850,-40.8090,34.0400
3.5326,0.0500,-0.0110,1.2260,-19.3890,27.1300,-40.6410,33.9400
3.5447,0.0500,0.0010,1.2350,-12.1980,25.0230,-39.6640,33.8900
3.5570,0.0570,0.0090,1.2290,-2.6720,25.5570,-37.6950,33.9400
3.5637,0.0450,0.0000,1.2170,2.5040,24.7940,-36.3210,33.9400
3.5764,0.0340,-0.0120,1.2140,0.5190,25.4660,-38.9920,33.8900
3.5827,0.0370,-0.0340,1.2230,0.5040,22.4120,-37.9390,33.8500
3.5951,0.0230,-0.0630,1.2270,-14.0000,17.5270,-42.5190,33.8900
3.6073,-0.0000,-0.0910,1.2570,-19.2820,27.9240,-37.7100,33.9900
3.6140,0.0210,-0.0830,1.2130,-13.3440,25.5110,-33.8020,33.8500
3.6261,0.0380,-0.0670,1.2260,-15.8780,31.6950,-31.8930,33.9900
3.6328,0.0680,-0.0550,1.2060,-16.0460,25.8930,-27.6490,33.9400
3.6448,0.0710,-0.0390,1.2280,-10.4120,31.5880,-30.1980,33.9400
3.6570,0.0760,-0.0190,1.2390,-8.8550,32.2290,-32.5500,33.9400
3.6639,0.0740,-0.0180,1.2560,-12.1680,31.6340,-34.6560,33.9400
3.6760,0.0470,-0.0210,1.2500,-16.3050,34.7180,-37.0080,33.8900
3.6829,0.0310,-0.0210,1.2340,-21.3590,34.1830,-39.3280,33.8900
3.6949,0.0400,-0.0200,1.1890,-20.2750,32.5340,-43.3740,33.8500
3.7069,0.0280,-0.0170,1.1850,-8.9160,30.5800,-42.2440,33.9900
3.7135,0.0300,-0.0490,1.1490,-7.4200,34.2140,-46.6560,33.9400
3.7259,0.0090,-0.0580,1.1470,-20.7630,34.0920,-55.2210,33.9400
3.7330,0.0190,-0.0570,1.1440,-28.2900,30.1680,-55.4810,33.8000
3.7446,0.0230,-0.0580,1.1410,-24.4120,29.5730,-51.8780,33.9400
3.7564,0.0320,-0.0370,1.1770,-17.3130,23.7100,-44.1070,33.8900
3.7635,0.0430,-0.0280,1.1930,-12.7480,24.1070,-46.2140,33.8900
3.7757,0.0330,-0.0570,1.2180,-6.5340,23.9080,-47.6030,33.9400
3.7877,0.0380,-0.0360,1.2230,-0.2600,23.1150,-43.2820,33.9900
3.7948,0.0290,-0.0580,1.2050,6.0610,23.4660,-40.1370,33.8500
3.8068,0.0270,-0.0720,1.2130,8.3210,24.1370,-41.6490,34.0400
3.8138,0.0300,-0.0890,1.2120,10.1980,26.4270,-42.0000,33.8900
3.8260,0.0370,-0.0940,1.2410,8.2600,29.8930,-41.7710,33.9400
3.8329,0.0360,-0.0920,1.2500,4.1070,31.6950,-37.9850,33.9900
3.8452,0.0340,-0.0770,1.2500,-4.4430,38.2140,-36.9160,33.8500
3.8570,0.0420,-0.0560,1.1980,-15.6030,43.6640,-45.5730,33.8500
3.8641,0.0310,-0.0370,1.1640,-14.5190,42.5650,-47.7400,33.8900
3.8762,0.0130,-0.0240,1.1250,-11.2820,41.9080,-48.9310,33.8500
3.8827,0.0170,-0.0130,1.1080,-3.5570,37.5570,-45.8320,33.9400
3.8950,0.0080,-0.0430,1.1180,-1.6640,34.4430,-47.9390,33.8000
3.9072,-0.0070,-0.0680,1.1320,-4.5650,33.7710,-49.7400,33.9400
3.9140,-0.0210,-0.0560,1.1720,-13.8170,33.7250,-49.7100,33.8000
3.9259,-0.0450,-0.0770,1.1480,-16.4430,37.2520,-42.4430,33.8900
3.9328,-0.0420,-0.0550,1.1210,-12.5650,39.6640,-30.0920,33.9400
3.9448,-0.0510,-0.0700,1.1130,-8.4120,40.9470,-21.9390,33.8900
3.9566,-0.0440,-0.0520,1.0750,-5.0690,43.1760,-18.4270,33.8500
3.9635,-0.0210,-0.0120,1.0560,-2.9920,42.1530,-16.0310,33.8900
3.9752,-0.0060,0.0220,1.0570,-8.1980,40.1070,-18.1220,33.7500
3.9876,0.0150,0.0370,1.0150,-15.8320,43.3440,-24.8090,33.8500
3.9945,0.0100,0.0270,1.0210,-18.8240,32.0920,-31.0990,33.8900
