Time,AX,AY,AZ,GX,GY,GZ,T
0.0000,0.1980,-0.0450,1.0710,57.2670,44.3050,17.9690,34.6000
0.0004,0.1630,0.0050,1.1380,35.8170,50.0150,-2.5340,34.5500
0.0009,0.0730,0.0230,1.2610,21.4050,53.0990,-36.3660,34.6000
0.0013,0.0720,0.0310,1.2490,29.7400,55.1910,-44.1680,34.6000
0.0017,0.0820,0.0800,1.1610,19.4660,61.5270,-47.8930,34.5500
0.0021,0.1030,0.0280,1.1980,27.4350,50.8090,-57.9690,34.5100
0.0025,0.0420,0.0400,1.0990,9.5880,47.1150,-53.5570,34.5100
0.0029,0.0700,0.0310,1.1850,-5.2370,26.9470,-54.4430,34.5500
0.0033,0.0410,0.0520,1.1670,2.3360,25.4200,-56.3210,34.6000
0.0037,0.0050,0.0530,1.1770,7.4200,27.6790,-51.5420,34.5100
0.0042,0.0050,0.0930,1.1530,17.8320,24.2750,-40.3050,34.6500
0.0052,-0.0000,0.1120,1.1420,26.0000,24.1830,-23.8630,34.4100
0.0059,-0.0150,0.1190,1.1840,19.8170,18.6720,-14.0610,34.5500
0.0063,0.0030,0.1650,1.1520,13.5570,16.6110,0.1220,34.5500
0.0066,0.0640,0.1650,1.1420,12.7180,15.0080,10.9160,34.5100
0.0069,0.1250,0.1250,1.0680,-1.1300,36.0760,-14.4730,34.5500
0.0072,0.0630,0.1530,1.1400,-31.9690,47.0230,-31.7560,34.4600
0.0076,0.0080,0.1130,1.2220,-29.6340,32.6260,-18.9770,34.6000
0.0079,-0.0090,0.0650,1.2570,-15.5270,25.9850,-13.9690,34.5500
0.0083,0.0110,0.0200,1.2290,-12.8550,23.0080,-19.5880,34.5100
0.0088,0.0210,-0.0110,1.2420,-5.3280,22.2750,-22.2600,34.5100
0.0091,0.0280,-0.0460,1.2060,-15.0230,21.2670,-34.6410,34.6500
0.0095,0.0010,0.0170,1.1700,-24.0310,19.1450,-45.0230,34.5100
0.0099,-0.0100,0.0710,1.1810,-15.2210,14.2290,-30.3360,34.5100
0.0103,-0.0300,0.1050,1.2030,-9.5730,5.1600,-16.3360,34.6500
0.0106,-0.0170,0.1250,1.1850,-6.3510,2.5800,-19.6790,34.6000
0.0109,0.0250,0.0980,1.2130,2.3210,3.9080,-23.6640,34.4600
0.0113,0.0780,0.0430,1.1880,0.6720,7.7100,-26.1530,34.4600
0.0116,0.1310,-0.0100,1.1910,14.5040,9.9850,-30.1980,34.5100
0.0119,0.0830,0.0030,1.2090,29.5880,9.1300,-34.6110,34.4600
0.0122,0.0380,0.0330,1.2110,21.4350,10.6110,-43.6950,34.6000
0.0127,-0.0100,0.0520,1.2440,14.5040,9.2820,-50.0310,34.5100
0.0135,-0.0270,0.0580,1.2460,6.5040,3.3740,-51.8020,34.4600
0.0141,0.0240,0.0830,1.1530,3.5270,4.4580,-36.9770,34.4100
0.0146,0.0070,0.0830,1.1820,-2.0000,2.5040,-9.0080,34.5100
0.0150,0.0710,0.2300,1.0590,-29.4500,-7.6030,-6.7330,34.4600
0.0155,0.0830,0.0410,1.2130,-12.1370,-4.8400,-3.4050,34.5100
0.0160,0.1280,0.0500,1.1820,-10.7940,2.9920,-16.3510,34.5100
0.0164,0.1560,-0.0140,1.2070,-12.8400,7.2820,-58.0000,34.4600
0.0167,0.1880,-0.0250,1.1770,5.1450,21.9690,-105.5270,34.6000
0.0171,0.0930,0.0270,1.1790,12.0150,28.1830,-87.3590,34.5100
0.0174,0.0380,0.0770,1.2250,15.8020,18.2140,-61.7560,34.4600
0.0177,0.0210,0.0910,1.2150,14.8400,20.0150,-59.3130,34.5100
0.0180,0.0430,0.0720,1.2080,7.4350,16.2750,-55.7710,34.4600
0.0184,0.0480,0.0190,1.2600,1.2520,13.7400,-60.2600,34.4600
0.0187,0.0250,0.0230,1.2890,-0.3210,7.4810,-71.3130,34.5100
0.0190,0.0900,0.0390,1.1890,10.2900,9.0840,-61.8630,34.5500
0.0194,0.0680,0.0260,1.1290,19.6340,37.5730,-36.3510,34.5100
0.0199,-0.0260,0.0460,1.2240,31.7100,45.2980,13.7710,34.5100
0.0203,0.0520,0.0970,1.1570,26.1370,42.6260,44.3510,34.5500
0.0206,-0.0260,0.2010,1.1590,16.3660,40.0000,45.1300,34.4100
0.0209,0.0090,0.1350,1.1750,10.6720,39.2820,36.8240,34.6000
0.0214,-0.0440,0.0960,1.2770,-7.4200,23.8470,16.5340,34.5500
0.0218,-0.0190,0.1500,1.2150,-9.5730,15.7710,-0.3970,34.5100
0.0221,0.0330,0.0700,1.2180,-1.7100,7.7100,9.9540,34.5500
0.0224,0.0770,0.1110,1.0740,3.5570,7.9690,36.8400,34.5100
0.0227,0.0970,0.0130,1.1840,12.6410,-0.0760,43.1910,34.5100
0.0230,0.0910,-0.0640,1.0660,12.5190,-2.9470,38.7630,34.5500
0.0232,0.1250,0.0420,1.2540,12.3050,10.2290,-4.7630,34.4600
0.0235,0.0750,0.0680,1.1820,-2.3050,16.7180,-48.2140,34.4100
0.0238,0.0530,0.1460,1.1880,-9.0380,18.4580,-82.7940,34.4600
0.0240,-0.0800,0.1850,1.3580,-32.0150,-15.5730,-86.0000,34.6000
0.0243,0.0950,0.1020,1.1420,-27.6950,-29.3590,-91.1760,34.6000
0.0246,0.1350,0.1450,1.0570,-22.7330,-13.5730,-82.5040,34.4600
0.0249,0.0480,0.2180,1.1300,-23.7860,-1.4810,-50.6560,34.6000
0.0252,0.2000,0.1930,1.0210,-62.7330,39.8170,-92.7790,34.5100
0.0254,-0.0810,-0.0470,1.6380,-58.3510,54.5800,-120.6260,34.5500
0.0257,-0.0610,0.0970,1.2480,-42.1070,29.7100,-94.0920,34.4100
0.0260,0.0950,0.0840,1.1470,-31.3590,21.0990,-65.4050,34.5100
0.0263,0.0870,0.0500,1.1040,-46.7330,11.4050,-50.0310,34.4600
0.0265,0.1170,-0.0150,1.0960,-49.5880,15.6640,-40.5340,34.5100
0.0268,0.0990,-0.0180,1.1190,-49.2370,13.3890,-9.2980,34.5500
0.0271,0.1420,-0.1410,1.2590,-58.3510,15.9540,-37.1910,34.4600
0.0274,0.2370,-0.1810,1.0780,-52.8700,20.4890,-91.3590,34.5100
0.0277,0.0690,-0.0030,1.1810,-43.2370,18.4890,-97.6950,34.5500
0.0279,0.0910,0.4750,1.0750,-24.2600,3.1150,-30.7330,34.4600
0.0282,0.1160,0.0670,1.0870,-4.5800,-17.5880,-14.9470,34.6000
0.0285,0.1590,0.1960,1.0790,-21.8020,-23.0990,13.4660,34.4600
0.0287,0.1140,-0.1190,1.1060,-27.3130,9.1760,-20.9920,34.5100
0.0289,0.0790,-0.0520,1.0990,-26.3360,28.7180,-49.1150,34.5100
0.0292,0.0400,-0.0590,1.0200,-38.0150,66.0460,-58.6110,34.5500
0.0294,0.0080,-0.0600,1.2290,-15.5270,75.6340,-54.2600,34.6000
0.0299,0.0480,-0.0360,1.1370,-32.2140,81.3280,-39.0690,34.5100
0.0301,0.1070,-0.0510,1.3730,-17.7710,80.3820,-35.4500,34.4600
0.0304,0.0900,-0.1170,1.1270,-63.7560,85.4500,-86.5340,34.6000
0.0306,0.0290,-0.0550,1.2610,-61.2370,96.9470,-131.9080,34.4600
0.0309,-0.0150,0.0130,1.2100,-59.0840,91.9390,-143.8780,34.5100
0.0311,-0.1200,0.0000,1.5010,-28.6260,14.8700,-84.7020,34.4100
0.0314,0.1530,0.2290,1.2650,-45.2520,-44.8090,-42.7790,34.4600
0.0316,0.0770,-0.2260,0.8830,-12.5500,-8.3210,-42.5950,34.4600
0.0319,-0.1130,0.0920,1.3530,-1.6180,-20.6560,-17.7100,34.5100
0.0321,-0.0660,-0.1070,1.2780,6.4730,-8.9470,-23.9690,34.5500
0.0324,-0.0500,-0.1460,1.2220,-0.6260,9.8020,-13.9690,34.5100
0.0326,-0.1100,-0.1350,1.4040,-19.0690,-2.5950,-20.9160,34.5100
0.0329,-0.0560,-0.0910,1.2990,16.2440,-8.1070,-9.0990,34.5500
0.0331,-0.0200,0.0530,0.9890,68.5040,-63.4350,44.5340,34.4100
0.0334,0.3900,-0.2320,0.5610,-23.1600,43.0080,-3.0230,34.5100
0.0336,0.2080,-0.2480,1.2020,-52.6720,43.1760,-17.6790,34.5500
0.0339,0.0940,-0.2440,1.2470,-47.6180,26.3360,-43.7250,34.5100
0.0341,0.0050,-0.0830,1.2370,-20.5500,13.8930,-48.5800,34.5100
0.0344,-0.0050,-0.0210,1.1600,-8.4120,5.1760,-46.1830,34.4600
0.0346,0.0140,-0.0180,1.1410,-13.6180,9.3890,-53.8020,34.5100
0.0348,0.0200,0.0180,1.1120,-11.3280,12.9470,-48.6110,34.4600
0.0350,0.0020,-0.0740,1.1910,-6.9160,4.5650,-43.3280,34.5500
0.0353,0.0210,-0.1750,1.2050,3.1600,-3.9080,-45.4200,34.4100
0.0355,-0.0010,-0.1260,1.2380,-6.4890,-4.7020,-76.5190,34.5500
0.0357,0.0190,-0.1670,1.1930,-12.0760,2.1980,-91.8470,34.5500
0.0359,-0.0960,0.1230,0.8390,9.7100,0.1680,-152.1220,34.5100
0.0362,0.2440,0.1360,1.2490,13.0690,-13.5270,-43.6790,34.4600
0.0364,0.3450,0.0270,1.2010,17.3890,-63.6030,108.4580,34.5100
0.0366,-0.3160,-0.5770,1.2250,-43.6340,-32.7020,110.2900,34.5100
0.0369,0.0160,-0.1710,1.1980,-43.6490,-43.2060,6.7480,34.4600
0.0371,-0.2130,0.0260,1.1150,9.4960,29.4200,34.9920,34.5100
0.0373,1.3400,-1.1220,1.3970,9.3890,27.2370,63.0990,34.4100
0.0375,0.0610,-0.0740,1.0350,-26.9620,25.6950,14.5500,34.5500
0.0377,0.0460,-0.3460,1.2480,-19.3130,11.6180,2.7480,34.5100
0.0381,0.8250,-0.2810,0.9490,-33.5110,17.4810,-5.1760,34.5500
0.0383,0.1310,-0.0950,1.1910,-56.2140,9.6340,-43.1600,34.5100
0.0385,0.0550,-0.0160,1.1970,-44.1070,16.5340,-66.9010,34.5100
0.0388,0.1180,-0.0500,1.2440,-34.7180,8.9470,-69.0080,34.4600
0.0390,0.0920,-0.1550,1.2270,-30.6870,-0.6870,-90.7480,34.4600
0.0392,0.0190,0.5050,1.2220,-28.1370,-2.7790,-148.5190,34.5100
0.0394,0.0740,-0.2920,1.1800,-42.8850,-19.9080,-106.1070,34.4600
0.0397,-0.3220,-0.3070,1.0400,-42.2290,-4.1070,-98.4120,34.4100
0.0399,-0.0100,-0.2780,1.0790,-39.7400,-13.2980,-95.4350,34.5100
0.0401,0.0390,-0.3160,1.1070,-41.7710,-18.1370,-86.9470,34.4600
0.0403,0.1750,-0.1960,1.0770,-45.2980,-7.9850,-83.7710,34.5100
0.0405,0.1120,-0.1990,0.9910,-31.2210,5.0230,-82.3210,34.5100
0.0407,0.1230,-0.1210,1.1080,-22.4890,20.2600,-58.3510,34.4600
0.0410,0.1880,-0.4880,0.7980,-3.6640,26.4120,-10.7940,34.4100
0.0412,0.1080,-0.1810,1.0340,0.3820,49.2520,6.5040,34.4600
0.0414,0.0650,-0.2720,1.0360,-1.0230,62.1370,17.8780,34.4600
0.0416,0.0300,-0.3040,1.0280,2.9920,55.1760,37.0380,34.5100
0.0418,0.0660,-0.2970,1.1390,11.3440,54.1980,30.8090,34.4600
0.0420,0.1180,-0.2540,1.2110,11.3890,45.5420,-10.5040,34.4600
0.0422,0.0720,-0.2440,1.1380,5.8780,34.2440,-33.4660,34.5100
0.0424,0.1000,-0.2290,1.1530,-11.6030,-17.1450,-33.4050,34.5500
0.0426,0.0680,-0.1460,1.1660,-10.2440,1.6950,-37.7560,34.6000
0.0428,0.1020,-0.2140,1.1180,-16.0920,-1.8170,-56.4890,34.5100
0.0430,0.1020,-0.1500,1.2230,-24.5500,-9.2370,-50.1830,34.6500
0.0432,0.1350,-0.1170,1.2050,-15.6180,-10.3660,-30.0310,34.5100
0.0434,0.1380,-0.1570,1.2150,-1.4660,-12.2750,-31.9850,34.4600
0.0436,0.9590,-0.1240,1.1510,14.7330,-0.2290,-69.5110,34.6000
0.0438,0.1410,-0.1470,1.2690,30.3050,5.0380,-48.5190,34.5100
0.0441,0.1520,-0.1470,1.1960,31.2370,8.8550,-51.6340,34.5500
0.0443,0.2360,-0.2590,1.1480,21.5570,22.4120,-59.4500,34.5500
0.0445,0.1510,-0.1730,1.1670,11.9850,37.3440,-71.3590,34.5100
0.0447,0.1470,-0.2340,1.1280,9.5570,51.0230,-63.8320,34.4600
0.0449,0.1000,-0.2760,1.1650,15.3590,51.9240,-50.1680,34.5100
0.0451,0.0860,-0.2510,1.1720,14.6260,52.7790,-52.4580,34.5100
0.0453,0.0780,-0.2060,1.1950,8.3510,42.3970,-52.6110,34.4600
0.0455,0.0750,-0.1550,1.2020,8.1980,31.8630,-53.5880,34.5100
0.0457,0.0680,-0.1150,1.2010,-3.3130,25.0690,-56.3210,34.4600
0.0459,0.0580,-0.1430,1.1890,-13.3740,21.3590,-51.7250,34.5500
0.0461,0.0860,-0.1680,1.1500,-21.1760,34.3660,-38.6260,34.6000
0.0466,0.0540,-0.1190,1.1610,3.6640,15.4960,-45.1300,34.4600
0.0467,0.0730,-0.1230,1.1690,-0.4890,14.3050,-48.0150,34.6000
0.0469,0.0720,-0.1280,1.1800,-3.0690,13.5110,-49.8320,34.6000
0.0471,0.0640,-0.1730,1.1660,2.8090,14.3210,-53.7710,34.5500
0.0489,0.0630,-0.2060,1.1730,8.1830,14.9920,-56.0150,34.5100
0.0558,0.0560,-0.2430,1.2100,8.1830,14.6410,-53.3590,34.5100
0.0683,0.0710,-0.2490,1.2200,4.5950,15.4350,-47.5730,34.4600
0.0750,0.0750,-0.2370,1.2240,2.1370,17.5730,-43.1300,34.6000
0.0872,0.0830,-0.2300,1.2030,1.6030,19.4200,-37.1600,34.5500
0.0942,0.0930,-0.1860,1.1750,-1.5570,16.5650,-34.4580,34.4600
0.1064,0.0760,-0.1380,1.1920,-0.1530,16.0150,-35.2820,34.6000
0.1185,0.0670,-0.1070,1.1870,5.3590,17.8930,-37.9540,34.5500
0.1254,0.0740,-0.1040,1.1900,9.5110,17.0690,-37.7560,34.4600
0.1378,0.0650,-0.1240,1.1870,14.6560,18.3050,-42.0000,34.6000
0.1445,0.0750,-0.1260,1.1670,19.9080,17.9690,-42.7330,34.4600
0.1567,0.0730,-0.1650,1.1540,18.9010,17.9850,-48.7630,34.4600
0.1690,0.0890,-0.1630,1.1370,17.2210,16.5800,-47.0840,34.5100
0.1758,0.0810,-0.1560,1.1450,13.3130,17.7400,-46.0000,34.6500
0.1881,0.0950,-0.1140,1.1700,3.6180,17.0380,-46.1370,34.5100
0.1949,0.1030,-0.0650,1.1570,1.4350,16.4430,-47.9540,34.6000
0.2071,0.1120,-0.0680,1.1600,8.9620,16.3050,-48.0610,34.5500
0.2194,0.0960,-0.1030,1.1540,9.6340,16.6870,-48.6870,34.5100
0.2264,0.0820,-0.1120,1.1870,5.9240,16.6720,-50.0610,34.5100
0.2388,0.0890,-0.1050,1.1860,6.4580,17.3130,-45.7400,34.4600
0.2457,0.0990,-0.0920,1.1720,5.3740,18.5500,-41.6950,34.5100
0.2578,0.0930,-0.0810,1.1670,5.0530,18.0760,-35.8930,34.4600
0.2647,0.0940,-0.0920,1.1440,4.7480,18.7630,-36.1220,34.5100
0.2772,0.0740,-0.0860,1.1510,6.5190,15.3590,-37.6030,34.5100
0.2892,0.0840,-0.0560,1.1900,0.1980,19.5110,-43.4810,34.4600
0.2963,0.0660,-0.0870,1.1940,0.9770,22.8400,-44.5800,34.5500
0.3084,0.0620,-0.1100,1.1670,0.7020,25.0230,-50.9470,34.5100
0.3154,0.0830,-0.0900,1.1410,-1.0690,25.4810,-52.0760,34.5500
0.3275,0.0660,-0.1220,1.1460,-1.0840,21.6030,-50.4890,34.5100
0.3343,0.0420,-0.1580,1.1400,-2.5340,18.6260,-51.1760,34.5100
0.3468,0.0550,-0.1590,1.1860,-4.6720,16.1220,-50.4120,34.4600
0.3587,0.0480,-0.1380,1.2050,1.2210,19.7860,-46.6260,34.6000
0.3656,0.0630,-0.1510,1.1730,1.1600,22.0150,-44.7790,34.5100
0.3780,0.0500,-0.1490,1.1660,1.2980,22.4430,-45.7710,34.5500
0.3850,0.0620,-0.1200,1.1430,-1.1600,22.0460,-49.9540,34.6000
0.3970,0.0680,-0.1100,1.1300,-4.0920,20.0150,-52.2900,34.6000
0.4092,0.0710,-0.1010,1.1430,-7.3590,18.1530,-49.0530,34.5500
0.4159,0.0580,-0.1000,1.1670,-7.4050,18.8850,-47.3590,34.5100
0.4282,0.0720,-0.1010,1.1510,-11.1910,20.3820,-49.5880,34.4600
0.4352,0.0710,-0.1300,1.1440,-7.6950,20.6260,-49.8020,34.5500
0.4469,0.0650,-0.1180,1.1320,-10.3360,19.9850,-50.6110,34.5100
0.4592,0.0830,-0.1090,1.1360,-8.2440,18.1530,-48.9310,34.4600
0.4659,0.0750,-0.1280,1.1640,-4.3970,17.8470,-48.9770,34.5500
0.4783,0.0910,-0.1060,1.2080,-8.0460,15.8470,-49.8470,34.5100
0.4853,0.0650,-0.1280,1.2210,-13.8780,18.2750,-48.4580,34.4600
0.4970,0.0600,-0.1460,1.2060,-8.1830,21.7560,-47.4350,34.5100
0.5091,0.0780,-0.1220,1.1850,-10.1680,27.2370,-48.6260,34.5100
0.5158,0.0610,-0.1430,1.1370,-6.7180,26.1070,-48.7790,34.4600
0.5282,0.0560,-0.1590,1.1570,-6.6560,21.7400,-51.2520,34.4100
0.5348,0.0740,-0.1390,1.1590,-5.0230,21.5420,-51.0990,34.5100
0.5472,0.0640,-0.1420,1.1990,-3.6640,23.6790,-52.4890,34.5500
0.5591,0.0570,-0.1440,1.2000,-3.6030,27.1450,-52.9310,34.6000
0.5662,0.0780,-0.1290,1.2010,1.4810,26.1980,-48.9010,34.5500
0.5785,0.0700,-0.1440,1.1740,7.5730,25.4500,-46.5950,34.6000
0.5854,0.0630,-0.1310,1.1660,5.1150,25.4810,-46.0760,34.6000
0.5974,0.0580,-0.1410,1.1680,-0.4270,27.5270,-47.9240,34.5500
0.6046,0.0820,-0.1130,1.1520,-0.9160,27.9690,-45.6950,34.5100
0.6164,0.0860,-0.1230,1.1610,2.2750,27.1300,-44.1220,34.5100
0.6287,0.0730,-0.1530,1.1560,1.5570,23.5880,-46.1830,34.4600
0.6359,0.0640,-0.1620,1.1590,6.9160,24.9470,-48.6260,34.5100
0.6478,0.0480,-0.1740,1.1650,3.7560,23.2820,-50.1370,34.4100
0.6573,0.0540,-0.1470,1.1870,-0.7330,24.3970,-49.8020,34.5500
0.6670,0.0590,-0.1260,1.1930,-2.7180,27.4810,-52.2900,34.5100
0.6791,0.0620,-0.0910,1.1930,-7.6030,28.7020,-57.7400,34.4600
0.6867,0.0640,-0.0630,1.2080,-6.9310,28.0760,-55.5730,34.4600
0.6981,0.0610,-0.0620,1.1610,1.6180,27.5570,-53.0840,34.4100
0.7051,0.0460,-0.0890,1.1770,1.0380,25.0080,-54.0760,34.4600
0.7174,0.0540,-0.0940,1.1680,0.4890,22.5650,-51.6640,34.5100
0.7229,0.0440,-0.1190,1.1670,8.2290,21.5110,-50.1370,34.5100
0.7363,0.0340,-0.1670,1.1710,5.6790,20.6870,-50.5950,34.5500
0.7486,0.0320,-0.1840,1.1580,1.9540,20.7630,-50.2140,34.6000
0.7557,0.0400,-0.1800,1.1670,0.5800,21.6180,-52.5500,34.5100
0.7680,0.0640,-0.1550,1.1770,-1.8170,23.1760,-52.3660,34.5100
0.7744,0.0620,-0.1070,1.1740,-3.3590,22.3820,-52.7630,34.5100
0.7870,0.0560,-0.1150,1.1880,-2.5340,20.2140,-54.0460,34.5500
0.7989,0.0510,-0.1290,1.1820,4.9620,17.7860,-53.4960,34.5500
0.8058,0.0420,-0.1330,1.1860,7.4350,17.3740,-53.8020,34.4100
0.8182,0.0430,-0.1220,1.2070,3.1450,19.0080,-55.6340,34.5500
0.8254,0.0450,-0.1170,1.2080,2.2600,21.0840,-55.8470,34.4100
0.8373,0.0510,-0.0990,1.2130,3.4200,22.9920,-56.1220,34.5100
0.8447,0.0660,-0.0950,1.1830,9.8320,22.3210,-52.6110,34.4600
0.8566,0.0670,-0.1150,1.1680,22.1530,19.7560,-45.1150,34.5100
0.8686,0.0560,-0.1360,1.1840,19.9540,18.3970,-44.8240,34.5100
0.8756,0.0600,-0.1370,1.1890,15.5420,19.0840,-42.5800,34.4600
0.8880,0.0600,-0.1070,1.1630,14.7790,19.4810,-44.7940,34.5100
0.8948,0.0620,-0.0630,1.1770,8.1680,23.5570,-48.5500,34.5500
0.9067,0.0650,-0.0640,1.1610,9.9850,23.8020,-49.1910,34.4600
0.9192,0.0530,-0.0760,1.1560,7.9390,22.4890,-54.9620,34.5100
0.9261,0.0530,-0.0620,1.1640,6.6720,18.8850,-57.6640,34.5500
0.9384,0.0670,-0.0640,1.1600,9.2820,19.3740,-56.7940,34.4600
0.9456,0.0690,-0.0680,1.1480,4.8090,19.3740,-58.4120,34.5100
0.9573,0.0650,-0.0780,1.1490,1.1760,20.1680,-58.5500,34.4600
0.9644,0.0690,-0.0920,1.1600,3.3280,19.6950,-57.3440,34.5100
0.9766,0.0570,-0.0910,1.1830,4.3210,19.9240,-53.7860,34.6000
0.9889,0.0510,-0.0910,1.1890,4.9470,21.8170,-52.1530,34.4600
0.9959,0.0450,-0.0860,1.2100,3.0530,25.2670,-54.2290,34.5100
1.0078,0.0460,-0.0720,1.2050,2.2750,27.9240,-52.5650,34.6000
1.0148,0.0440,-0.0860,1.1780,3.4350,29.6030,-51.3740,34.5500
1.0272,0.0520,-0.0650,1.1520,-2.4580,29.1910,-52.6560,34.5100
1.0393,0.0520,-0.0560,1.1140,-7.3130,27.6340,-56.7180,34.4600
1.0460,0.0550,-0.0590,1.1130,-9.9690,28.1830,-67.0380,34.4600
1.0581,0.0750,-0.0510,1.1120,-20.3970,27.3280,-81.8320,34.5100
1.0649,0.0640,-0.0720,1.0920,-21.0080,24.0150,-87.7250,34.5500
1.0771,0.0370,-0.0990,1.1150,-15.9390,22.9310,-95.6640,34.5100
1.0890,0.0730,-0.0780,1.1350,-9.5270,20.7330,-86.5800,34.5100
1.0960,0.0410,-0.0820,1.1730,-1.2060,18.9770,-70.7480,34.5500
1.1080,0.0420,-0.0780,1.1840,-9.4350,22.3210,-60.7180,34.5100
1.1150,0.0420,-0.0710,1.1990,-10.1220,22.1370,-56.1220,34.5100
1.1271,0.0640,-0.0560,1.2120,-2.6410,22.1680,-46.7790,34.5500
1.1392,0.0520,-0.0720,1.2090,4.0760,18.5040,-39.1910,34.5100
1.1460,0.0500,-0.0650,1.1990,2.5650,15.7560,-35.6340,34.5100
1.1583,0.0480,-0.0810,1.2200,-3.3740,17.3590,-32.3660,34.5500
1.1653,0.0420,-0.1180,1.2100,-9.5730,19.6180,-34.2600,34.5100
1.1773,0.0510,-0.1420,1.2170,-14.4270,23.2210,-34.4890,34.5500
1.1832,0.0550,-0.1470,1.2060,-13.5420,25.1150,-33.1600,34.4600
1.1964,0.0400,-0.1550,1.1700,-11.7400,25.2820,-40.7790,34.5100
1.2084,0.0260,-0.1420,1.1390,-16.7630,25.4500,-45.2060,34.5500
1.2152,0.0050,-0.1290,1.1200,-19.0990,22.7480,-44.0000,34.5500
1.2272,0.0060,-0.0870,1.1130,-25.6490,21.5270,-46.5950,34.5100
1.2396,0.0240,-0.0850,1.1040,-22.9920,18.4730,-46.1530,34.4600
1.2462,0.0190,-0.0990,1.1230,-19.5730,13.4810,-45.9080,34.3200
1.2581,0.0260,-0.0810,1.1690,-15.8780,11.0840,-43.6790,34.5100
1.2649,0.0320,-0.0680,1.1760,-9.2670,8.5650,-38.5040,34.4600
1.2773,0.0290,-0.0770,1.2320,-0.0310,10.2750,-36.3210,34.4100
1.2894,0.0550,-0.0920,1.2120,-1.9850,12.6720,-37.2060,34.6000
1.2962,0.0390,-0.1500,1.2020,2.1980,12.2290,-39.5570,34.4600
1.3084,0.0370,-0.1260,1.1880,0.8090,13.1760,-47.0990,34.5100
1.3154,0.0470,-0.1200,1.1440,-8.7790,13.8170,-49.0690,34.5500
1.3274,0.0390,-0.1550,1.1020,-9.7560,11.5270,-45.2670,34.5100
1.3345,0.0430,-0.1460,1.1150,-7.8470,7.5730,-41.6640,34.6000
1.3467,0.0470,-0.1450,1.1280,0.0150,4.3510,-37.4050,34.4600
1.3590,0.0320,-0.1400,1.1370,6.8850,1.7860,-37.7100,34.5500
1.3659,0.0540,-0.1010,1.1750,2.8240,7.9390,-42.7630,34.5100
1.3783,0.0670,-0.0890,1.2170,-11.7860,13.0530,-48.0000,34.4600
1.3852,0.0400,-0.0670,1.2940,-14.8090,8.8240,-50.0310,34.5100
1.3972,0.0890,-0.0380,1.2570,-2.7180,15.5730,-55.5270,34.5100
1.4094,0.1030,-0.0720,1.2370,-4.0310,19.2060,-65.0230,34.5500
1.4163,0.0610,-0.1410,1.1950,-3.1760,24.4430,-68.3210,34.5100
1.4284,0.0600,-0.1690,1.1590,-0.4430,21.4350,-65.8170,34.6000
1.4353,0.0520,-0.1760,1.1520,4.7790,19.8320,-60.1370,34.6500
1.4474,0.0590,-0.1810,1.1760,5.9240,19.7560,-53.7250,34.5100
1.4543,0.0530,-0.2020,1.1700,12.3510,19.8630,-44.0460,34.5500
1.4665,0.0250,-0.1930,1.2240,23.2520,17.5880,-38.1530,34.5500
1.4786,0.0540,-0.1530,1.2370,21.7250,23.3280,-35.2060,34.5100
1.4855,0.0810,-0.1180,1.1880,9.3130,28.0610,-37.8170,34.5500
1.4975,0.0770,-0.0970,1.1820,3.8780,29.9390,-39.0690,34.4600
1.5044,0.0920,-0.0780,1.1660,6.9160,31.9240,-39.3590,34.5100
1.5167,0.0950,-0.1160,1.1310,16.1220,26.1070,-36.9620,34.5500
1.5291,0.0600,-0.1250,1.1560,13.4500,26.6410,-39.3440,34.5500
1.5360,0.0880,-0.0680,1.1750,-0.8550,31.1300,-45.1760,34.5100
1.5482,0.1040,-0.0320,1.1590,-16.5650,35.9390,-51.9690,34.4600
1.5552,0.0960,-0.0080,1.1730,-22.6410,36.2440,-55.9240,34.5100
1.5670,0.0740,-0.0110,1.1920,-13.7100,35.2820,-51.8930,34.5100
1.5790,0.0570,-0.0730,1.1770,-3.0990,33.6030,-50.3050,34.4600
1.5860,0.0460,-0.1290,1.1430,0.2600,29.6490,-47.4810,34.4100
1.5983,0.0250,-0.1800,1.1190,2.5800,27.8930,-45.3740,34.5100
1.6050,0.0110,-0.1640,1.1550,-0.1980,26.5340,-43.9850,34.5500
1.6173,0.0160,-0.1460,1.1860,-3.8170,28.2140,-43.4810,34.4100
1.6292,0.0050,-0.1310,1.1920,-4.8550,29.3590,-43.1600,34.5100
1.6363,0.0230,-0.1250,1.2010,-9.5730,32.3210,-43.2210,34.5100
1.6483,0.0320,-0.1250,1.1730,-9.4500,28.3050,-38.6870,34.5100
1.6553,0.0270,-0.1540,1.1700,-8.4890,26.5500,-40.9620,34.4600
1.6675,0.0250,-0.1330,1.1810,-9.5570,22.7020,-42.6720,34.4600
1.6794,0.0380,-0.1450,1.1820,-5.7560,21.1450,-44.6870,34.5100
1.6864,0.0330,-0.1260,1.1980,-4.9010,20.4580,-48.4730,34.4600
1.6983,0.0730,-0.0480,1.2260,-14.1980,23.4500,-53.3890,34.6000
1.7051,0.0710,-0.0330,1.2280,-11.1600,22.4730,-55.4500,34.5100
1.7175,0.0720,-0.0640,1.1990,1.7560,21.2060,-53.3590,34.5500
1.7233,0.0340,-0.1150,1.1870,10.5190,16.1370,-51.5270,34.5100
1.7366,0.0320,-0.1370,1.2050,15.9690,11.4200,-49.4350,34.5100
1.7494,0.0340,-0.1680,1.2140,9.9240,15.3440,-47.2670,34.5500
1.7557,0.0290,-0.1870,1.2030,1.6180,18.5190,-46.6870,34.4100
1.7677,0.0230,-0.1870,1.1980,-2.3660,20.5500,-47.0690,34.5100
1.7748,0.0220,-0.1820,1.1730,-3.8630,18.9620,-45.1910,34.5500
1.7867,0.0380,-0.1310,1.1570,-11.6640,22.2750,-48.1680,34.5100
1.7988,0.0560,-0.0720,1.1310,-19.3890,21.0990,-49.8930,34.4600
1.8058,0.0690,-0.0490,1.1070,-18.9770,18.8240,-52.8240,34.4600
1.8177,0.0510,-0.0380,1.1010,-10.7020,11.4050,-51.4350,34.5100
1.8246,0.0570,-0.0110,1.1140,-9.1300,7.8470,-56.4430,34.4600
1.8368,0.0840,0.0040,1.1100,-23.9690,10.2440,-67.7400,34.5500
1.8489,0.1020,-0.0310,1.1500,-32.7940,12.0920,-73.2670,34.5100
1.8555,0.1270,-0.1020,1.1980,-33.6950,7.0840,-73.5420,34.4600
1.8677,0.0970,-0.1450,1.2230,-13.4810,17.3740,-73.2370,34.5100
1.8743,0.0830,-0.1600,1.3070,3.1150,12.1370,-64.6260,34.4100
1.8868,0.0620,-0.1920,1.2850,11.4810,12.0610,-53.2820,34.4600
1.8988,0.0370,-0.2400,1.2630,16.3210,14.4890,-46.5950,34.5100
1.9055,0.0240,-0.2360,1.2410,11.7560,18.3050,-43.8780,34.5100
1.9181,0.0210,-0.2430,1.2270,0.9920,24.1220,-42.3660,34.5500
1.9251,0.0260,-0.2120,1.1850,-11.3740,25.8170,-41.6640,34.5100
1.9370,0.0190,-0.1490,1.1540,-18.8700,27.0690,-40.0760,34.4100
1.9488,0.0380,-0.0830,1.0900,-31.1150,27.0990,-40.7020,34.5100
1.9556,0.0580,-0.0460,1.0440,-20.7940,24.8240,-39.6490,34.4100
1.9679,0.0590,-0.0450,1.0590,-9.9080,10.6870,-42.8090,34.4600
1.9749,0.0490,-0.0500,1.0840,4.2440,6.2440,-43.9080,34.5500
1.9871,0.0400,-0.0850,1.1250,10.8240,4.5340,-44.8850,34.5100
1.9991,0.0330,-0.1430,1.1560,10.4270,6.3210,-45.9080,34.4600
2.0063,0.0340,-0.1720,1.1910,7.8170,9.4960,-46.0920,34.5100
2.0182,0.0240,-0.2160,1.1830,4.2900,14.0310,-46.5190,34.5100
2.0256,0.0210,-0.2140,1.1740,-0.1220,15.0690,-46.5190,34.4600
2.0377,0.0250,-0.2100,1.1420,-1.5730,17.9240,-46.7790,34.5100
2.0446,0.0200,-0.1940,1.1230,-6.2900,16.8850,-52.6110,34.6000
2.0565,0.0650,-0.1370,1.0820,-15.6340,17.9690,-45.3280,34.4600
2.0687,0.0530,-0.1540,1.0600,-23.3280,11.7860,-42.8090,34.4100
2.0753,0.0500,-0.1320,1.0780,-23.6340,9.6640,-43.7250,34.4100
2.0875,0.0640,-0.1040,1.1010,-18.8700,8.5650,-46.5650,34.4600
2.0946,0.0740,-0.0830,1.1430,-8.1370,6.8550,-50.7330,34.6000
2.1066,0.0810,-0.0850,1.1760,0.6870,9.3280,-51.7400,34.4600
2.1190,0.1010,-0.0810,1.2010,0.0920,10.3050,-56.5950,34.4600
2.1259,0.1050,-0.1040,1.2570,3.6180,14.1980,-59.0530,34.5100
2.1382,0.0900,-0.1600,1.2520,8.1980,19.2820,-58.1980,34.4600
2.1454,0.0660,-0.1750,1.2230,8.3820,22.7180,-49.5880,34.5500
2.1575,0.0490,-0.1790,1.1890,0.2440,24.8700,-46.4890,34.5100
2.1633,0.0620,-0.1820,1.1550,-5.9390,28.3210,-42.6260,34.4600
2.1766,0.0650,-0.1670,1.1330,-13.2820,28.0760,-45.9690,34.5100
2.1884,0.0710,-0.1550,1.1070,-18.8400,24.3210,-47.6180,34.5100
2.1954,0.0650,-0.1720,1.1020,-14.9620,25.2060,-50.9160,34.4600
2.2073,0.0780,-0.1380,1.1310,-11.3130,20.7330,-50.4730,34.5100
2.2194,0.0920,-0.1820,1.1450,-2.7480,18.8700,-50.5500,34.5100
2.2263,0.0730,-0.2010,1.1840,11.4960,20.7790,-53.8320,34.4600
2.2384,0.0710,-0.2000,1.2140,16.5800,19.0990,-53.4350,34.4100
2.2453,0.0600,-0.2250,1.2470,22.5500,24.1370,-53.8470,34.3700
2.2575,0.0460,-0.2060,1.2780,17.3280,27.3280,-53.4350,34.5100
2.2628,0.0740,-0.1660,1.2610,12.1370,32.5650,-46.4270,34.5100
2.2766,0.0720,-0.1590,1.2460,8.9160,34.8400,-44.6110,34.4600
2.2887,0.0900,-0.1190,1.2040,-4.7020,39.6180,-50.8400,34.5500
2.2955,0.1050,-0.1470,1.1630,-9.3130,37.8780,-49.4660,34.5100
2.3075,0.0730,-0.1530,1.1540,-7.2210,35.6950,-47.3590,34.4600
2.3143,0.0730,-0.1360,1.1780,-12.4430,36.9010,-49.7100,34.4100
2.3267,0.0690,-0.1230,1.1810,-12.1980,35.9080,-50.8850,34.5100
2.3386,0.0730,-0.1290,1.1750,-6.5650,33.6030,-53.1450,34.5500
2.3455,0.0450,-0.1140,1.2070,2.7480,29.8020,-54.9770,34.4100
2.3575,0.0560,-0.1180,1.2040,14.9160,29.1300,-51.4500,34.4100
2.3646,0.0500,-0.1500,1.2050,19.4500,29.5270,-45.7560,34.5500
2.3768,0.0490,-0.1870,1.1770,27.7250,24.8090,-40.0460,34.4100
2.3888,0.0310,-0.1990,1.1920,22.3510,26.2600,-40.0920,34.4600
2.3958,0.0250,-0.1740,1.2060,11.3280,27.3440,-41.0840,34.4600
2.4081,0.0180,-0.1410,1.2040,2.5190,29.5110,-46.1220,34.5100
2.4151,0.0290,-0.1090,1.1960,-0.9470,29.3130,-47.8930,34.5500
2.4270,0.0440,-0.0940,1.1680,-5.7860,29.1300,-53.5110,34.5100
2.4391,0.0380,-0.1070,1.1350,-3.8470,23.9850,-55.0990,34.5100
2.4461,0.0040,-0.1280,1.1460,1.0990,23.3130,-53.6950,34.5500
2.4582,0.0000,-0.1250,1.1540,1.8930,20.2750,-50.4270,34.5100
2.4651,0.0150,-0.1350,1.1480,0.9470,20.1070,-49.1300,34.4100
2.4776,0.0270,-0.0910,1.1560,-4.9310,19.7100,-49.4050,34.4600
2.4833,0.0240,-0.0680,1.1470,-11.4200,19.4350,-52.6560,34.4100
2.4964,0.0280,-0.0590,1.1280,-13.4960,19.6950,-56.6720,34.4600
2.5083,0.0330,-0.0580,1.1030,-15.8930,17.2670,-57.3740,34.5100
2.5151,0.0150,-0.1390,1.0830,-2.6110,9.3440,-51.4660,34.5100
2.5276,-0.0290,-0.1880,1.1250,14.9010,0.5800,-49.8780,34.4600
2.5333,-0.0400,-0.2090,1.1470,33.8930,-4.0610,-44.4580,34.4600
2.5465,-0.0240,-0.2280,1.1450,42.4890,-4.6720,-42.7180,34.5100
2.5583,0.0040,-0.1670,1.1730,26.1070,-0.6870,-44.7480,34.4600
2.5651,0.0420,-0.0990,1.1610,11.0230,3.4350,-44.4730,34.5100
2.5775,0.0640,-0.0610,1.1430,2.5650,10.0610,-50.3050,34.5100
2.5847,0.0750,-0.0390,1.1440,-3.4350,7.2980,-55.9240,34.4600
2.5969,0.1150,-0.0150,1.1680,-4.5340,13.4050,-55.5110,34.5100
2.6089,0.0860,-0.0530,1.1680,-4.9770,15.2060,-52.2750,34.5100
2.6156,0.0760,-0.0940,1.1770,-9.0690,15.9540,-50.3510,34.4600
2.6279,0.0600,-0.1100,1.2000,-15.1600,21.1760,-51.3740,34.5100
2.6350,0.0470,-0.1150,1.1670,-14.4430,23.4810,-47.6340,34.4600
2.6469,0.0300,-0.1420,1.1690,-8.9310,23.8170,-45.9080,34.4600
2.6589,0.0250,-0.1600,1.1360,-2.1220,24.6560,-44.7330,34.5100
2.6655,0.0090,-0.1650,1.1580,-0.2900,23.2060,-44.0310,34.5500
2.6781,0.0190,-0.1390,1.1540,0.5340,25.7100,-44.6260,34.4600
2.6846,0.0480,-0.1320,1.1210,-0.1220,22.6560,-44.6870,34.5100
2.6970,0.0430,-0.1330,1.1280,-0.1980,22.6720,-48.4890,34.4600
2.7092,0.0640,-0.1210,1.1580,-2.1370,22.2600,-51.2980,34.4100
2.7161,0.0510,-0.1000,1.2100,-0.3360,26.4580,-51.1450,34.5100
2.7282,0.0730,-0.0710,1.2110,4.5650,20.9470,-46.3660,34.5500
2.7352,0.0520,-0.0920,1.2230,9.1600,21.0380,-45.6950,34.6000
2.7472,0.0310,-0.1040,1.2320,12.5950,22.4430,-43.6950,34.4100
2.7595,0.0210,-0.1350,1.2210,12.1220,22.2290,-44.7940,34.5500
2.7663,0.0110,-0.1730,1.2130,8.4730,24.5650,-47.9080,34.6000
2.7783,0.0080,-0.1880,1.2170,0.5500,26.1830,-49.7710,34.4100
2.7856,-0.0010,-0.1880,1.2300,-9.5270,27.7710,-48.4120,34.4600
2.7975,-0.0100,-0.1800,1.2280,-18.1830,30.0000,-49.6790,34.4100
2.8093,-0.0170,-0.1540,1.2040,-18.7790,29.1300,-47.2670,34.5500
2.8162,-0.0180,-0.1450,1.1820,-11.8170,25.7400,-45.7860,34.5100
2.8282,-0.0240,-0.1460,1.1950,-0.8090,22.7630,-44.1070,34.5100
2.8350,-0.0180,-0.1480,1.2040,3.2520,21.7710,-46.2900,34.5500
2.8472,-0.0190,-0.1450,1.1830,5.1300,20.1530,-49.6490,34.5100
2.8592,-0.0290,-0.1440,1.1830,6.6870,17.2370,-45.0990,34.5100
2.8661,-0.0500,-0.1960,1.1800,3.9080,14.9310,-46.0920,34.4600
2.8784,-0.0520,-0.1950,1.1810,0.8240,12.8240,-48.4890,34.5100
2.8855,-0.0420,-0.1850,1.2140,-0.7480,10.0920,-48.7330,34.4100
2.8972,-0.0440,-0.1900,1.2440,-2.3820,10.3660,-51.5420,34.4600
2.9092,-0.0240,-0.1730,1.2770,-2.0460,10.8240,-53.6640,34.4100
2.9159,-0.0160,-0.1730,1.2840,-2.8090,14.5500,-56.5040,34.4100
2.9282,0.0110,-0.1200,1.2670,2.8240,16.8850,-61.0530,34.4600
2.9351,0.0380,-0.0340,1.2780,6.5340,17.7860,-57.3890,34.5100
2.9474,0.0390,-0.0570,1.2250,11.6180,20.3660,-54.5800,34.4600
2.9594,0.0480,-0.0600,1.1930,13.2520,21.6490,-53.1600,34.4600
2.9664,0.0650,-0.0760,1.1940,-2.7940,24.7020,-62.1070,34.5100
2.9785,0.0350,-0.0850,1.1890,-17.0840,25.9850,-64.7940,34.5500
2.9856,0.0210,-0.1390,1.1860,-25.8320,29.5570,-68.3360,34.4600
2.9971,0.0030,-0.1380,1.2080,-36.2140,34.5190,-74.2600,34.5100
3.0094,-0.0190,-0.1070,1.2280,-37.1450,35.7250,-72.1220,34.4600
3.0158,-0.0310,-0.0660,1.2210,-29.3590,35.4350,-61.1300,34.5100
3.0281,-0.0380,-0.0310,1.1920,-24.0000,35.2670,-47.2670,34.5100
3.0350,-0.0230,0.0310,1.1730,-26.3050,36.1070,-43.0990,34.4600
3.0468,-0.0430,0.0240,1.1520,-37.4350,35.3130,-41.5730,34.4100
3.0612,-0.0490,-0.0350,1.0970,-39.3740,33.3130,-36.1830,34.4100
3.0655,-0.0530,-0.1790,1.0830,-20.9620,33.2980,-47.2670,34.4100
3.0774,-0.0400,-0.3150,1.0700,2.6110,30.6260,-54.2140,34.4100
3.0847,-0.0540,-0.4590,0.9560,38.2290,21.9690,-46.4430,34.4600
3.0965,-0.0760,-0.4350,0.9830,55.4810,11.7250,-43.2820,34.4600
3.1084,-0.0450,-0.2840,1.0530,30.7940,12.8700,-42.3050,34.4100
3.1152,0.0020,-0.1670,1.0540,5.2060,12.4580,-33.7250,34.4600
3.1273,0.0190,-0.0950,1.0930,-5.3130,11.3440,-33.0840,34.4100
3.1342,0.0550,0.0450,1.1960,-5.6180,13.6030,-38.1070,34.5100
3.1466,0.0800,0.1450,1.2430,-3.7250,15.8020,-49.2980,34.4600
3.1588,0.0660,0.2100,1.2420,-2.4120,17.6790,-57.2980,34.5100
3.1654,0.0580,0.1370,1.1930,-3.1760,18.2750,-52.8550,34.5100
3.1778,0.0810,-0.1620,1.0610,14.6110,14.5650,-36.7790,34.5500
3.1848,-0.0200,-0.3950,1.0360,51.6950,3.5420,-30.9010,34.5100
3.1966,-0.0800,-0.3750,1.1390,50.9920,0.0760,-29.1910,34.4100
3.2091,0.0620,-0.2410,1.0770,46.7630,15.6180,-26.5500,34.4600
3.2157,0.0090,-0.1520,1.1920,15.1910,11.3440,-28.7630,34.4100
3.2280,0.0020,-0.1120,1.2120,-4.2750,16.9310,-32.5950,34.4100
3.2348,0.0190,-0.0640,1.2090,-8.9470,23.7710,-38.7020,34.5500
3.2471,0.0020,0.0080,1.2140,-14.7630,24.2140,-37.8470,34.4100
3.2593,0.0070,0.0230,1.1960,-20.5340,26.2140,-47.6950,34.5500
3.2659,0.0420,0.0370,1.1600,-26.6560,25.5110,-60.9920,34.5500
3.2784,0.0510,-0.1440,1.0970,-9.8930,23.4050,-61.4960,34.3200
3.2852,0.0330,-0.2400,1.1720,13.4500,23.2370,-68.1830,34.5500
3.2973,0.0100,-0.2830,1.2170,8.9160,23.8020,-52.4890,34.4600
3.3029,0.0190,-0.2650,1.1800,4.4270,27.4050,-35.6340,34.4100
3.3165,-0.0020,-0.2320,1.1200,-19.3280,34.1680,-16.5500,34.4600
3.3282,-0.0120,-0.1990,1.0380,-39.4660,38.8700,-7.8780,34.5100
3.3351,0.0120,-0.1100,1.0250,-39.5880,34.5040,-5.1300,34.5100
3.3473,0.0410,-0.0240,1.1270,-24.8400,30.0000,-10.0920,34.4600
3.3594,0.0650,0.0840,1.2040,-4.7020,28.1980,-20.4730,34.4100
3.3666,0.0930,0.1040,1.2710,-19.4050,39.3130,-44.0460,34.5100
3.3787,0.1050,0.0840,1.2240,-37.2670,36.0760,-68.5800,34.3700
3.3856,0.1140,-0.1510,1.1050,-6.1680,41.7400,-55.6790,34.5100
3.3976,0.0120,-0.4290,1.0360,51.3280,35.1300,-44.9620,34.5100
3.4047,-0.0210,-0.3490,1.0910,49.5570,28.6720,-29.1450,34.4600
3.4163,0.0420,-0.1670,1.0370,18.4270,28.7020,-12.1530,34.4100
3.4286,0.1090,-0.0160,1.0610,-21.9850,35.2980,-18.4430,34.4600
3.4359,0.0900,0.0640,1.0930,-58.1070,43.2820,-25.8780,34.5100
3.4477,0.0830,0.0990,1.1000,-60.3210,43.0230,-34.9770,34.4100
3.4543,0.0730,0.1270,1.1600,-51.1760,36.1680,-45.9080,34.4600
3.4666,0.0660,0.0630,1.2140,-39.2210,31.3440,-54.1830,34.4600
3.4788,0.0410,-0.0780,1.2340,-15.9690,30.9010,-59.5110,34.4100
3.4857,0.0630,-0.1550,1.3040,3.1450,38.2900,-63.7100,34.5500
3.4976,0.0760,-0.2230,1.2830,6.6560,43.7250,-62.0760,34.5100
3.5048,0.0470,-0.2810,1.2490,8.9010,46.1530,-42.1530,34.4100
3.5168,0.0350,-0.2470,1.1940,2.5500,49.6950,-21.3740,34.4600
3.5292,0.0370,-0.1930,1.1450,-4.9920,48.2900,-9.7710,34.5100
3.5363,0.0420,-0.1120,1.1310,-9.5270,43.3280,-8.7020,34.4100
3.5484,0.0490,-0.0280,1.1780,7.1760,39.1600,-12.5500,34.5500
3.5552,0.0600,0.0320,1.2720,28.6410,37.8630,-22.5040,34.4100
3.5674,0.0830,0.0440,1.3530,36.7330,40.0610,-30.5040,34.4100
3.5743,0.0670,0.0100,1.3050,41.3890,43.9540,-42.4730,34.4600
3.5868,0.0670,0.0250,1.2410,29.2210,45.8780,-49.6790,34.4100
3.5988,0.0790,-0.0020,1.1790,18.4430,53.2370,-36.6410,34.3700
3.6056,0.0550,-0.0490,1.1440,10.3970,48.3820,-37.0840,34.4600
3.6179,0.0580,-0.0600,1.1100,-1.5110,44.2750,-43.4960,34.5100
3.6249,0.0050,-0.1010,1.0750,-5.6490,36.1980,-41.7250,34.4600
3.6369,-0.0160,-0.1340,1.0990,-1.8780,28.1220,-38.8700,34.3700
3.6489,-0.0170,-0.1360,1.1440,-0.8240,27.5270,-34.7790,34.5100
3.6555,0.0020,-0.0770,1.2150,-1.8930,25.4960,-33.1150,34.3700
3.6680,-0.0120,-0.0670,1.2160,10.7330,26.2900,-28.9010,34.5100
3.6746,-0.0130,-0.0520,1.2310,17.9850,27.7710,-30.7480,34.5100
3.6867,-0.0180,-0.0270,1.1950,15.5880,26.3660,-32.7630,34.4600
3.6988,-0.0220,-0.0170,1.1790,7.4960,26.0310,-32.8090,34.4100
3.7056,-0.0490,-0.0700,1.1490,13.2370,25.8930,-29.3740,34.4100
3.7176,-0.0430,-0.0880,1.1160,20.4120,23.6950,-23.9850,34.4600
3.7246,-0.0340,-0.1250,1.0900,12.2900,15.0530,-24.2750,34.4100
3.7369,-0.0210,-0.1250,1.1090,8.8400,10.7630,-23.4350,34.4600
3.7486,-0.0420,-0.1290,1.1060,14.0610,10.0920,-20.4270,34.5100
3.7555,-0.0370,-0.0950,1.1570,18.1680,13.9080,-18.8850,34.5100
3.7676,-0.0210,-0.0370,1.1910,13.2670,15.9080,-23.2670,34.4600
3.7746,0.0180,0.0230,1.1870,-2.3210,16.9310,-29.4660,34.4600
3.7868,0.0120,0.0590,1.2120,-3.8170,17.6030,-35.3130,34.5100
3.7990,0.0140,0.0700,1.1970,-7.0990,15.7400,-39.7710,34.3700
3.8058,0.0080,0.0190,1.1800,-0.8700,12.3050,-37.2060,34.5100
3.8179,0.0010,-0.0710,1.1530,5.5570,10.8850,-36.2290,34.4100
3.8251,-0.0040,-0.0970,1.1460,3.5730,13.0080,-35.6950,34.4600
3.8374,-0.0190,-0.1440,1.1740,-6.8550,13.9240,-36.1980,34.5100
3.8491,-0.0160,-0.1410,1.1560,-12.7940,15.7250,-29.2060,34.5100
3.8557,-0.0180,-0.1380,1.1110,-12.5650,14.5040,-27.6030,34.4600
3.8680,-0.0030,-0.1120,1.1080,-13.0990,9.8780,-31.6340,34.4100
3.8746,0.0100,-0.0170,1.1520,-12.8550,8.1070,-32.6410,34.4600
3.8867,0.0330,0.0210,1.2310,-8.3360,2.2900,-34.5040,34.4600
3.8990,0.0140,-0.0220,1.2460,1.5570,3.0990,-41.6340,34.5100
3.9061,0.0190,-0.0760,1.2840,12.6110,9.3130,-47.9240,34.3700
3.9184,0.0230,-0.1290,1.3100,5.4660,16.0000,-48.4430,34.4600
3.9254,0.0240,-0.1720,1.2720,-6.2440,20.1680,-43.9080,34.4100
3.9374,0.0130,-0.1900,1.2440,-11.0990,23.4500,-36.2600,34.4600
3.9493,0.0050,-0.1520,1.2120,-12.7790,24.0920,-29.8170,34.4100
3.9561,0.0210,-0.1130,1.1960,-11.6640,22.5040,-19.3740,34.5100
3.9684,0.0130,-0.1280,1.1880,-3.8020,20.9620,-14.7630,34.4600
3.9753,0.0090,-0.0940,1.1930,-5.0990,21.5880,-20.6110,34.4100
3.9875,0.0270,-0.0490,1.1900,-12.4120,22.9160,-30.4890,34.5100
3.9994,0.0160,-0.0390,1.1940,-10.6110,24.7180,-37.3130,34.4600
