Time,AX,AY,AZ,GX,GY,GZ,T
0.0000,-0.0400,0.0450,1.0000,-6.1980,49.3280,8.6560,34.0800
0.0005,-0.0630,0.0420,1.0040,1.8630,39.1910,3.6640,34.1300
0.0009,-0.0830,0.0420,1.0640,-0.8090,32.0920,-3.2820,34.0400
0.0013,-0.0820,0.0590,1.0680,-12.4430,24.3510,-5.6030,34.0800
0.0018,-0.0730,0.0730,1.0530,-19.3890,23.5110,-8.4270,34.0400
0.0024,-0.0640,0.0830,1.0840,-15.2060,20.5950,-14.0000,34.0400
0.0028,-0.0510,0.0550,1.1280,-1.8470,15.4500,-19.0530,34.0800
0.0032,-0.0370,0.0120,1.1830,9.4200,16.4120,-20.0460,34.0400
0.0036,-0.0610,-0.0090,1.2370,5.5110,18.1530,-22.1220,34.0800
0.0041,-0.0750,-0.0300,1.2590,-0.6870,22.2440,-26.7480,33.9900
0.0045,-0.0680,-0.0640,1.2170,-5.3890,30.7180,-27.7560,34.1300
0.0049,-0.0670,-0.0470,1.2180,-14.8700,42.6110,-24.0460,34.0800
0.0053,-0.0730,-0.0130,1.2180,-23.8470,46.3970,-17.2520,34.0400
0.0057,-0.0540,0.0000,1.1160,-26.8400,49.8780,-8.3510,34.0400
0.0061,-0.0430,-0.0130,1.0340,-13.9390,46.5800,-4.9010,34.0400
0.0065,-0.0260,0.0200,0.9820,-5.4660,38.7790,-8.7790,34.0400
0.0068,-0.0540,0.0220,1.0570,-1.1150,28.7180,-12.2140,33.9900
0.0072,-0.0350,0.0320,1.0880,5.3280,17.0690,-17.0080,34.0800
0.0081,-0.0610,0.0420,1.1540,4.1220,13.8170,-20.0000,34.0400
0.0085,-0.0340,0.0250,1.1800,2.2600,13.7560,-21.3130,34.0800
0.0088,-0.0460,0.0130,1.1880,-1.7100,18.2290,-20.3050,34.0400
0.0092,-0.0350,0.0100,1.1810,-5.9240,23.5570,-21.3130,34.0400
0.0096,-0.0260,0.0360,1.1810,-14.6260,25.6180,-22.8090,34.0800
0.0099,-0.0250,0.0210,1.1820,-13.1760,26.5340,-23.3590,34.0400
0.0103,-0.0150,0.0200,1.1720,-7.8170,28.1980,-22.4730,34.0800
0.0106,0.0230,0.0230,1.1710,-7.9240,27.4050,-20.7480,34.0800
0.0109,-0.0030,-0.0030,1.1680,-14.6110,29.2370,-20.4580,34.0400
0.0113,0.0120,-0.0090,1.1420,-17.3440,28.5040,-20.7480,34.1800
0.0120,0.0320,-0.0010,1.1290,-16.1070,26.2600,-24.4270,34.1300
0.0128,0.0210,0.0160,1.1710,-16.3210,23.7560,-30.2140,34.0400
0.0132,0.0160,0.0470,1.1800,-12.4730,21.4810,-34.7020,34.1800
0.0136,0.0010,0.0600,1.2190,-4.8090,20.8400,-40.1530,34.1300
0.0140,-0.0210,0.0420,1.2540,-1.4960,19.9690,-43.7250,33.9900
0.0144,-0.0470,0.0090,1.2630,-3.1300,22.0460,-44.1530,34.1300
0.0148,-0.0770,-0.0770,1.2720,-0.5950,23.3130,-42.1980,34.0400
0.0152,-0.0910,-0.1320,1.2810,0.6870,29.2370,-36.4120,34.0800
0.0156,-0.1000,-0.1620,1.2360,-2.6720,30.7020,-28.3660,34.1300
0.0162,-0.1000,-0.1480,1.1890,-5.2370,30.3820,-22.7480,34.0400
0.0165,-0.0880,-0.1040,1.1580,-4.1980,28.4430,-16.7940,34.0800
0.0168,-0.0710,-0.0400,1.1480,-0.3970,25.4500,-15.3890,34.0400
0.0172,-0.0550,0.0300,1.1680,-5.7250,24.4120,-18.2440,34.1800
0.0176,-0.0450,0.0730,1.1970,-5.8930,20.3820,-22.5500,34.1300
0.0182,-0.0400,0.0890,1.2000,-0.5190,18.7020,-29.1600,34.0400
0.0186,-0.0460,0.0940,1.1990,6.7940,18.9160,-34.0610,34.0800
0.0189,-0.0480,0.0760,1.1950,3.5730,17.0530,-41.5270,34.0400
0.0192,-0.0550,0.0630,1.1940,-0.9620,13.9080,-48.9770,33.9900
0.0195,-0.0730,0.0160,1.1890,-5.4050,11.4200,-54.3360,34.0400
0.0198,-0.1010,-0.0320,1.1890,-5.7250,9.8470,-56.3970,34.0400
0.0201,-0.1230,-0.0850,1.2020,-2.6410,10.0610,-52.3360,34.0800
0.0204,-0.1440,-0.1290,1.2040,-0.0310,10.8850,-45.8020,34.1800
0.0207,-0.1510,-0.1500,1.1910,1.0840,12.7180,-36.3510,34.1300
0.0210,-0.1510,-0.1520,1.1540,-3.4350,13.8930,-31.6790,34.0800
0.0213,-0.1390,-0.1050,1.1220,-12.2290,14.9010,-29.3890,34.1300
0.0215,-0.1200,-0.0510,1.0780,-20.7630,13.1300,-29.9240,34.0400
0.0218,-0.1000,-0.0210,1.0510,-27.0380,7.5270,-33.4200,34.0800
0.0221,-0.0730,0.0280,1.0750,-26.0150,-1.2060,-39.1300,34.0400
0.0224,-0.0530,0.0490,1.1040,-11.0840,-9.8780,-43.8170,34.0800
0.0227,-0.0400,0.0390,1.1670,4.1530,-13.3740,-48.3970,34.0800
0.0230,-0.0330,-0.0060,1.2250,7.2820,-12.9920,-50.7940,34.1300
0.0233,-0.0300,-0.0510,1.2660,4.5040,-6.6720,-49.9240,34.0800
0.0236,-0.0430,-0.0670,1.2680,-7.0230,1.1600,-47.1910,34.0400
0.0238,-0.0380,-0.0540,1.2250,-16.3510,7.6030,-41.6340,34.1300
0.0243,-0.0330,-0.0420,1.1880,-22.6410,11.9540,-37.8170,33.9900
0.0246,-0.0400,-0.0360,1.1540,-28.9160,14.1530,-36.6870,34.0400
0.0249,-0.0220,-0.0060,1.1530,-28.3970,15.4810,-36.0760,34.2200
0.0252,-0.0100,0.0050,1.1460,-28.0150,14.8550,-36.4270,33.9400
0.0255,-0.0010,0.0320,1.1350,-27.9540,14.9620,-40.7180,34.1300
0.0257,-0.0100,0.0370,1.1240,-28.1830,12.6110,-45.4960,34.0800
0.0260,-0.0170,0.0290,1.1000,-19.7400,8.7480,-51.3280,34.0800
0.0263,-0.0280,0.0050,1.1330,-6.1070,5.9390,-54.4430,34.0400
0.0266,-0.0270,-0.0290,1.1430,2.4430,2.3510,-52.8700,33.9900
0.0268,-0.0380,-0.0950,1.1430,9.3440,1.2670,-48.6720,34.0400
0.0271,-0.0420,-0.1620,1.1510,13.2060,1.2060,-44.0310,34.1300
0.0274,-0.0590,-0.1900,1.2030,4.8700,6.5950,-41.2820,34.0800
0.0277,-0.0320,-0.1690,1.2280,-14.3360,8.1530,-38.5340,34.1300
0.0280,-0.0150,-0.1210,1.2660,-19.9390,16.9470,-34.3360,34.0800
0.0282,0.0060,-0.0600,1.2400,-21.2210,23.9240,-34.2290,34.0800
0.0285,0.0160,-0.0030,1.2040,-26.0310,28.7630,-36.3660,34.1300
0.0287,0.0220,0.0100,1.1220,-27.2820,27.7400,-41.5110,34.0800
0.0290,-0.0040,-0.0370,1.0950,-18.1680,24.0310,-48.2600,34.0800
0.0292,0.0000,-0.0550,1.0880,-14.7630,18.6720,-53.2210,34.0400
0.0295,-0.0050,-0.0560,1.0990,-19.6180,15.1300,-55.2370,34.0800
0.0297,-0.0240,-0.0840,1.1210,-7.4050,10.9160,-55.4350,34.1300
0.0300,-0.0280,-0.0930,1.1330,5.7100,7.4660,-52.1220,34.0400
0.0302,-0.0440,-0.1190,1.1540,9.0840,8.6720,-50.4730,34.1300
0.0305,-0.0370,-0.1350,1.1460,1.7250,5.2670,-49.6030,34.1300
0.0307,-0.0340,-0.1430,1.1520,4.7020,8.1980,-47.9850,34.0800
0.0310,-0.0370,-0.1250,1.1840,9.3740,7.9850,-42.7790,34.0800
0.0312,-0.0290,-0.1010,1.2130,1.7250,10.2440,-40.4120,34.0400
0.0315,-0.0460,-0.0890,1.2150,-2.2440,17.5420,-39.3590,33.9900
0.0318,-0.0050,-0.0550,1.1710,-8.5190,16.8700,-40.2140,34.1300
0.0320,-0.0010,-0.0550,1.1510,-8.6410,18.4730,-37.4350,34.0400
0.0323,-0.0050,-0.0570,1.1150,-1.9850,14.4430,-38.7480,34.0800
0.0326,0.0020,-0.0950,1.1210,5.3130,10.5340,-42.3660,34.0400
0.0328,-0.0020,-0.1140,1.1590,3.6490,7.8170,-45.4960,34.0400
0.0331,-0.0200,-0.1400,1.2070,3.7250,7.1450,-45.1450,34.0800
0.0333,-0.0280,-0.1380,1.2370,4.7480,10.1680,-45.0690,34.1300
0.0336,-0.0440,-0.1310,1.2410,2.6560,13.3130,-45.0840,34.0800
0.0338,-0.0280,-0.1050,1.2230,5.1150,16.6410,-39.8170,34.0800
0.0341,-0.0210,-0.1100,1.2200,-2.5340,12.6870,-39.5270,34.1300
0.0343,-0.0340,-0.1110,1.2040,-17.0840,16.3050,-35.8020,34.0800
0.0345,-0.0080,-0.0970,1.1410,-0.0460,16.1530,-31.5420,34.1300
0.0347,-0.0100,-0.1050,1.1490,5.1450,15.2980,-33.3590,34.0400
0.0350,-0.0010,-0.1190,1.1820,-5.3130,13.7100,-34.1370,34.0800
0.0352,-0.0010,-0.0940,1.1770,-9.9080,4.9160,-32.9470,34.0400
0.0354,0.0090,-0.0940,1.1970,-1.8780,6.5040,-34.7630,34.1300
0.0356,0.0260,-0.0770,1.1940,6.1680,10.3050,-33.8320,34.0800
0.0359,0.0040,-0.0710,1.2280,3.7100,8.0920,-31.6180,34.0400
0.0361,0.0380,-0.0500,1.2510,-3.1300,9.5730,-39.2820,33.9900
0.0363,0.0200,-0.0210,1.2730,-9.5110,11.9540,-42.6870,34.0400
0.0365,0.0190,-0.0420,1.2560,-11.5110,17.4050,-46.4270,34.0400
0.0368,0.0250,-0.0460,1.2370,-8.2900,17.7710,-46.9920,34.0800
0.0370,0.0250,-0.0760,1.1940,-0.5190,15.8320,-44.8550,34.0400
0.0372,0.0190,-0.1030,1.1890,6.7630,11.7100,-44.8090,34.0400
0.0374,0.0270,-0.1190,1.1900,2.7480,8.2440,-44.9920,34.0800
0.0376,0.0130,-0.1520,1.2030,-1.2060,10.1830,-45.5270,34.1300
0.0379,0.0150,-0.1630,1.2460,8.0310,11.1910,-41.8020,34.0800
0.0381,0.0230,-0.1360,1.2470,5.4500,14.2600,-40.3970,34.0800
0.0383,0.0230,-0.1260,1.2260,-4.3510,21.9850,-39.2520,34.0400
0.0385,0.0180,-0.0780,1.1980,-4.2600,23.5570,-38.1220,34.0800
0.0387,0.0240,-0.0430,1.1590,-4.9010,26.3360,-38.6260,34.0800
0.0390,0.0130,-0.0180,1.1280,-6.7480,22.6560,-40.1370,34.1300
0.0392,0.0330,0.0060,1.1040,-7.4960,20.4430,-46.7940,34.0800
0.0394,0.0320,0.0170,1.1230,-12.4730,16.9620,-51.6030,34.1300
0.0396,0.0140,-0.0280,1.1660,-9.3890,15.1300,-55.0530,34.0400
0.0398,-0.0070,-0.0700,1.1780,-6.2440,14.3050,-60.2440,34.0800
0.0400,0.0100,-0.0790,1.1980,-0.7940,14.8550,-59.6030,34.0400
0.0402,0.0040,-0.1210,1.1950,-1.1760,14.6260,-59.5730,33.9900
0.0404,0.0130,-0.1260,1.1780,-6.0150,13.4200,-53.2980,34.1300
0.0406,-0.0020,-0.1570,1.1540,-3.6180,12.5340,-47.4500,34.1300
0.0410,-0.0020,-0.1430,1.1680,-0.0310,12.0150,-42.9310,33.9900
0.0412,0.0150,-0.1300,1.1750,-1.1150,12.8850,-42.5500,34.0400
0.0414,0.0300,-0.0880,1.1810,-8.7630,14.7790,-43.7100,34.1300
0.0416,0.0370,-0.0630,1.1820,-17.2210,16.8090,-45.9690,34.0800
0.0418,0.0400,-0.0570,1.1770,-13.0080,17.7710,-49.1600,33.9400
0.0420,0.0480,-0.0390,1.1890,-8.7330,18.8400,-51.6340,34.0800
0.0422,0.0470,-0.0480,1.1820,-12.2290,18.9620,-56.6870,34.0800
0.0424,0.0410,-0.0660,1.1640,-9.0990,18.1680,-58.2140,34.0400
0.0426,0.0300,-0.0910,1.1640,-3.2820,17.8930,-58.3050,33.9900
0.0428,0.0150,-0.1070,1.1700,-3.7860,15.3440,-57.6180,34.1300
0.0430,0.0130,-0.1230,1.1670,-5.4810,16.6110,-58.4580,34.0400
0.0432,-0.0150,-0.0950,1.1780,-16.9620,19.2060,-50.4120,34.0800
0.0433,0.0010,-0.1100,1.1570,-32.0000,19.9850,-47.5110,34.2200
0.0435,0.0260,-0.1070,1.1340,-28.8240,20.0000,-49.7710,34.0400
0.0437,0.0210,-0.0980,1.1280,-15.5570,16.7630,-47.2210,34.0800
0.0438,0.0090,-0.1040,1.1250,-8.9010,11.4660,-46.2440,33.9400
0.0439,0.0070,-0.1130,1.1410,-6.5040,9.7710,-49.2670,34.0800
0.0441,0.0070,-0.1150,1.1520,-11.0230,10.8550,-50.1830,34.1300
0.0442,0.0150,-0.1080,1.1600,-14.4270,11.7860,-50.0310,34.0400
0.0444,0.0220,-0.1110,1.1600,-16.0150,13.6640,-52.2290,34.0800
0.0446,0.0470,-0.0730,1.1670,-20.9620,15.2370,-56.0920,34.0400
0.0448,0.0340,-0.0680,1.1660,-16.9010,14.2440,-54.1530,34.1300
0.0450,0.0380,-0.1050,1.1390,-2.9310,12.8090,-55.5880,34.0800
0.0452,0.0740,-0.0930,1.1300,5.2210,15.4960,-50.8550,34.1300
0.0454,0.0450,-0.1540,1.1690,3.1910,11.1600,-50.2440,34.0800
0.0459,0.0320,-0.1240,1.1910,2.3510,17.2060,-44.4120,34.0400
0.0461,0.0360,-0.1350,1.2000,0.2900,20.1070,-44.5190,34.0400
0.0463,0.0280,-0.1370,1.2020,3.4660,20.7940,-44.7020,34.0800
0.0465,0.0400,-0.1380,1.1970,3.6490,21.1760,-44.5950,34.0400
0.0488,0.0420,-0.1390,1.1910,3.8020,20.8550,-44.8400,34.0800
0.0559,0.0450,-0.1330,1.2050,5.5880,21.8320,-43.1910,34.1300
0.0682,0.0420,-0.1320,1.1890,4.8850,23.1910,-41.8470,34.0400
0.0749,0.0360,-0.1210,1.1860,3.3440,24.0000,-40.9770,34.0800
0.0872,0.0400,-0.0950,1.1910,4.9920,24.5190,-39.5110,34.1300
0.0941,0.0360,-0.0860,1.1930,6.6410,24.0150,-40.0760,34.1300
0.1064,0.0340,-0.0780,1.2050,7.4050,24.5190,-41.1150,34.0800
0.1187,0.0390,-0.0700,1.1780,3.2980,24.6560,-42.5190,34.0400
0.1256,0.0330,-0.0960,1.1490,3.0840,23.2060,-44.9010,34.0400
0.1380,0.0350,-0.0860,1.1560,4.6870,21.1600,-47.2370,34.0800
0.1446,0.0310,-0.1040,1.1670,10.4120,18.5500,-47.8780,34.0400
0.1569,0.0290,-0.1250,1.1940,12.7790,17.8930,-47.2370,34.0800
0.1692,0.0340,-0.1370,1.2000,10.1530,18.1220,-45.6340,34.0800
0.1761,0.0250,-0.1380,1.2180,7.8630,20.9470,-43.0690,34.1300
0.1881,0.0430,-0.1310,1.2240,6.7630,23.7100,-43.1760,34.0800
0.1951,0.0400,-0.1060,1.2090,6.7630,24.9920,-42.1220,33.9400
0.2073,0.0430,-0.1000,1.1880,11.7710,23.5270,-41.9240,34.1300
0.2141,0.0460,-0.0880,1.1690,17.0530,23.3590,-43.3280,34.0800
0.2264,0.0410,-0.0820,1.1640,12.9160,21.5270,-45.4050,34.0400
0.2385,0.0440,-0.0640,1.1680,10.2290,20.5500,-45.5730,34.0800
0.2456,0.0330,-0.0700,1.1540,15.2670,18.6110,-43.6180,34.1300
0.2574,0.0360,-0.0760,1.1740,19.9850,21.1600,-45.0380,34.0400
0.2645,0.0390,-0.0820,1.1850,19.6950,16.7480,-45.6640,34.0800
0.2764,0.0380,-0.0910,1.1670,21.1760,12.8850,-44.8400,34.1300
0.2887,0.0450,-0.0860,1.1770,19.2520,14.3050,-46.2900,34.0400
0.2957,0.0410,-0.0840,1.1920,17.2670,16.6870,-46.5950,34.0800
0.3077,0.0550,-0.0750,1.2110,13.5570,17.0380,-47.7250,34.1300
0.3151,0.0580,-0.0700,1.2130,19.2370,16.2750,-45.2060,34.1300
0.3270,0.0620,-0.0510,1.1930,23.1600,16.6560,-44.9310,33.9900
0.3391,0.0610,-0.0400,1.1970,18.8400,19.2670,-45.9240,34.0400
0.3460,0.0700,-0.0210,1.1590,12.6410,18.9920,-45.9390,33.9900
0.3581,0.0560,-0.0050,1.1500,16.5950,16.6410,-45.4200,34.1800
0.3648,0.0560,-0.0020,1.1570,18.6410,14.1530,-44.7020,34.1300
0.3770,0.0500,-0.0220,1.1630,21.2370,11.5570,-44.4430,34.0800
0.3890,0.0470,-0.0130,1.1810,21.4350,11.9540,-44.5650,34.0400
0.3963,0.0460,0.0040,1.2040,16.1830,13.2670,-45.0530,34.1300
0.4082,0.0440,-0.0000,1.2230,13.7560,16.5190,-46.4430,34.0800
0.4152,0.0430,-0.0060,1.2330,11.0840,19.4350,-47.6640,34.1300
0.4274,0.0400,-0.0140,1.2200,9.6030,22.5340,-48.5950,34.0800
0.4333,0.0440,-0.0330,1.1730,5.6790,24.4730,-49.1300,34.0400
0.4464,0.0310,-0.0410,1.1460,4.3210,23.9690,-47.8320,34.1300
0.4585,0.0440,-0.0170,1.1160,7.0080,22.2750,-46.6110,34.0800
0.4657,0.0490,-0.0060,1.1070,5.4500,20.1070,-45.4350,34.0400
0.4777,0.0550,-0.0180,1.0940,2.8550,18.3360,-46.5650,34.1300
0.4847,0.0460,-0.0190,1.1090,3.5110,17.1150,-46.8400,34.0800
0.4973,0.0470,0.0020,1.1250,-1.8020,17.8780,-47.7100,34.0400
0.5093,0.0470,-0.0000,1.1280,-9.9540,18.2900,-48.1530,34.0800
0.5158,0.0510,0.0060,1.1390,-7.9240,17.6790,-46.6110,34.0800
0.5282,0.0550,0.0220,1.1700,-5.5110,16.4730,-46.9770,34.1300
0.5351,0.0500,0.0100,1.1800,-3.8470,15.4660,-48.7790,34.0800
0.5476,0.0490,0.0080,1.1870,-4.4120,17.5570,-51.3130,34.1300
0.5547,0.0590,0.0310,1.1740,-7.6640,17.6640,-51.0990,34.1300
0.5665,0.0470,-0.0020,1.1330,-7.4960,16.9470,-52.9010,34.1300
0.5788,0.0490,-0.0440,1.1230,-10.5500,14.8550,-53.9540,34.1300
0.5855,0.0380,-0.0570,1.1340,-12.4580,13.1910,-52.9160,34.0800
0.5978,0.0470,-0.0610,1.1290,-17.8470,11.6180,-54.1980,34.0800
0.6045,0.0540,-0.0310,1.1620,-15.0230,12.6560,-53.4350,33.9400
0.6164,0.0650,0.0010,1.1880,-14.8550,14.2440,-53.1910,34.0800
0.6286,0.0670,0.0070,1.1900,-11.5730,13.2210,-52.5800,34.1300
0.6356,0.0720,-0.0020,1.1940,-4.5950,13.4660,-52.7480,34.1300
0.6476,0.0820,-0.0210,1.2040,-0.3050,14.5190,-51.9850,34.0800
0.6547,0.0640,-0.0450,1.1880,-3.7560,15.7400,-52.7480,34.1300
0.6665,0.0680,-0.0490,1.1900,-5.8170,16.6410,-52.8400,33.9900
0.6788,0.0680,-0.0400,1.2000,-11.0690,19.7100,-52.0310,33.9900
0.6854,0.0640,-0.0290,1.1930,-12.3970,21.5420,-50.9920,34.0400
0.6976,0.0590,-0.0060,1.1960,-8.5340,24.9310,-50.7020,34.0800
0.7049,0.0600,0.0010,1.1810,-6.6410,24.0460,-51.3130,34.0400
0.7168,0.0600,-0.0030,1.1700,-5.8630,23.1760,-53.0530,34.1300
0.7289,0.0580,-0.0210,1.1270,-5.0690,21.2060,-52.7790,34.0800
0.7357,0.0480,-0.0340,1.1410,-2.3820,20.5650,-52.9770,34.1300
0.7479,0.0550,-0.0570,1.1490,-1.8630,20.1220,-54.3050,34.0800
0.7549,0.0580,-0.0660,1.1630,-7.0230,19.6790,-56.8700,34.0400
0.7668,0.0550,-0.0620,1.1700,-6.4270,19.8930,-54.3510,34.1300
0.7792,0.0680,-0.0650,1.1660,-3.0530,21.1450,-53.6640,34.0800
0.7858,0.0710,-0.0520,1.1730,-3.3280,20.5190,-54.0150,34.2200
0.7982,0.0800,-0.0190,1.1890,-4.5340,20.2900,-53.3890,34.0400
0.8050,0.0960,-0.0110,1.1770,-2.2140,21.3130,-52.4120,34.0800
0.8170,0.0920,-0.0120,1.1610,-0.3970,21.3740,-53.6950,34.0400
0.8291,0.0880,-0.0200,1.1670,-1.7710,21.5730,-54.9470,34.0800
0.8360,0.0700,-0.0370,1.1650,-4.7940,21.8170,-56.3360,34.0800
0.8483,0.0690,-0.0420,1.1700,-6.6260,22.4270,-56.3820,34.1300
0.8553,0.0610,-0.0560,1.1700,-6.2140,22.4890,-56.0310,34.0800
0.8672,0.0520,-0.0620,1.1750,-4.5340,22.9620,-55.4500,34.0800
0.8793,0.0610,-0.0400,1.1890,-5.9240,23.4660,-55.3440,34.0400
0.8864,0.0640,-0.0330,1.1930,-3.5110,23.2980,-56.1980,34.0800
0.8983,0.0650,-0.0320,1.1840,-1.6490,24.1530,-56.6720,34.1300
0.9056,0.0720,-0.0490,1.1780,-2.4270,24.2900,-59.3890,34.1300
0.9176,0.0740,-0.0560,1.1770,-3.5420,24.1830,-60.1680,34.0800
0.9245,0.0450,-0.0420,1.2020,-2.7180,23.8170,-60.5950,34.0400
0.9365,0.0490,-0.0300,1.2340,-4.0000,25.5270,-59.5730,33.9900
0.9485,0.0450,-0.0270,1.2410,-6.5500,27.3890,-58.3050,34.0400
0.9556,0.0310,-0.0510,1.2230,-0.1220,27.3890,-56.9770,34.1300
0.9675,0.0290,-0.0680,1.2220,7.0840,26.9920,-54.9920,34.0800
0.9745,0.0230,-0.0730,1.2220,9.1450,25.6950,-53.3440,33.9900
0.9869,0.0220,-0.0780,1.2060,8.4430,26.0460,-53.2520,34.1300
0.9990,0.0160,-0.0630,1.1840,6.1070,26.9160,-53.5110,33.9900
1.0057,0.0100,-0.0520,1.1820,4.1070,27.2060,-53.6490,34.1300
1.0180,0.0130,-0.0490,1.1640,2.0610,26.6560,-53.2820,34.0400
1.0250,0.0200,-0.0390,1.1470,-2.8550,25.4660,-54.7330,34.0800
1.0373,0.0190,-0.0270,1.1480,-6.1680,24.6560,-55.6340,34.0400
1.0491,0.0290,-0.0200,1.1490,-4.3820,22.6720,-56.0920,34.0800
1.0561,0.0240,-0.0220,1.1540,1.0690,20.3970,-55.1450,34.0800
1.0684,0.0230,-0.0300,1.1630,3.1300,18.6110,-54.4730,34.1300
1.0752,0.0240,-0.0310,1.1830,3.7710,17.9080,-54.3660,34.0800
1.0875,0.0300,-0.0380,1.1970,4.3210,19.2060,-53.0690,34.0400
1.0943,0.0300,-0.0210,1.1920,2.2750,21.2520,-52.6410,34.1300
1.1067,0.0270,-0.0230,1.1860,-0.4430,21.7710,-50.5950,34.0800
1.1191,0.0250,-0.0330,1.1590,2.5040,19.8930,-48.9160,34.0400
1.1255,0.0230,-0.0090,1.1590,4.0610,17.0530,-49.3440,34.1300
1.1379,0.0250,-0.0170,1.1530,0.4890,15.6340,-51.4500,34.1300
1.1448,0.0220,-0.0260,1.1680,-0.1530,14.3820,-51.8320,34.0400
1.1572,0.0130,-0.0380,1.1830,1.1450,16.7180,-51.7560,34.0800
1.1629,0.0210,-0.0380,1.1860,-1.6490,17.1300,-52.0460,34.0800
1.1761,0.0200,-0.0430,1.1670,-5.3740,17.0530,-52.1680,34.1300
1.1885,0.0320,-0.0430,1.1680,-1.6640,16.0920,-51.2060,34.0800
1.1952,0.0350,-0.0330,1.1880,0.7020,15.3590,-49.3130,34.1300
1.2074,0.0370,-0.0410,1.1960,2.7180,15.3280,-48.0150,34.0400
1.2145,0.0430,-0.0190,1.1820,-0.8700,16.6560,-48.6870,34.0800
1.2264,0.0480,-0.0100,1.1870,-7.7400,17.5880,-50.5190,34.1300
1.2388,0.0500,-0.0080,1.1630,-6.5500,17.8320,-52.0460,34.0800
1.2457,0.0500,-0.0010,1.1660,1.5730,15.9240,-50.2750,33.9900
1.2578,0.0520,0.0020,1.1870,3.7100,14.4430,-50.7790,34.1300
1.2648,0.0530,0.0040,1.1910,1.6950,14.1980,-51.0530,34.0800
1.2772,0.0490,-0.0310,1.1740,3.2670,14.9770,-52.3050,34.0400
1.2829,0.0500,-0.0380,1.1890,0.3050,16.3210,-52.9010,34.1300
1.2964,0.0610,-0.0550,1.1950,-2.9920,16.3360,-52.2140,34.0800
1.3086,0.0600,-0.0420,1.2010,-1.6640,17.2520,-50.7180,34.0400
1.3154,0.0620,-0.0330,1.1960,2.3660,17.8320,-50.2290,34.0800
1.3274,0.0560,-0.0110,1.2080,0.4730,20.2440,-50.5950,34.0400
1.3345,0.0570,0.0020,1.1960,-1.4660,22.1980,-50.8850,34.2200
1.3470,0.0510,-0.0120,1.1750,-0.9620,23.8930,-51.5110,34.0800
1.3591,0.0520,0.0020,1.1660,-3.9080,23.5880,-51.0380,34.1300
1.3662,0.0450,-0.0130,1.1350,-4.7180,21.6340,-51.1600,34.1300
1.3781,0.0460,-0.0200,1.1380,-2.9770,20.0000,-51.2980,34.1800
1.3847,0.0320,-0.0100,1.1710,-0.9470,19.2670,-51.2670,34.1300
1.3973,0.0360,-0.0250,1.1670,-0.6870,19.6640,-49.1760,34.1800
1.4093,0.0410,-0.0220,1.1640,-0.1370,19.8930,-49.8320,34.0800
1.4160,0.0400,-0.0230,1.1730,-3.2520,19.7400,-50.1680,34.0400
1.4283,0.0430,-0.0270,1.1800,-4.4270,19.5880,-49.8020,34.0800
1.4350,0.0420,-0.0320,1.1970,-1.9080,18.7020,-50.0150,34.2200
1.4475,0.0420,-0.0360,1.2030,0.8850,19.2820,-49.9080,34.1300
1.4533,0.0430,-0.0450,1.2030,0.2140,18.3660,-50.1370,34.1300
1.4665,0.0570,-0.0570,1.2060,2.5650,18.8700,-49.7710,34.1300
1.4786,0.0540,-0.0600,1.2040,4.5500,19.6030,-48.7180,34.0800
1.4854,0.0390,-0.0580,1.2070,3.3280,21.1760,-46.6260,34.0800
1.4980,0.0470,-0.0270,1.2000,-2.2900,22.7790,-44.7180,34.1300
1.5049,0.0470,-0.0240,1.1940,-2.1530,23.5420,-43.3590,34.0800
1.5171,0.0400,-0.0030,1.1860,-0.5040,22.1070,-43.6490,34.0400
1.5292,0.0530,0.0210,1.1730,1.7860,20.9310,-43.2210,34.1300
1.5364,0.0540,0.0050,1.1410,9.9080,16.9620,-41.8470,34.0800
1.5481,0.0500,-0.0310,1.1350,11.6180,13.2520,-44.2290,34.1300
1.5553,0.0580,-0.0240,1.1630,10.1530,11.3280,-45.2980,34.0800
1.5672,0.0520,-0.0310,1.1840,3.6640,13.2520,-47.3440,34.0800
1.5744,0.0570,-0.0300,1.2020,-4.6260,15.7560,-49.2670,34.1300
1.5866,0.0460,-0.0190,1.1950,-10.6560,18.7020,-50.6560,34.0800
1.5986,0.0530,-0.0110,1.1740,-9.4810,18.0920,-48.7630,34.1300
1.6060,0.0700,-0.0020,1.1640,-3.6340,16.0310,-48.7630,34.1300
1.6176,0.0700,-0.0110,1.1520,-1.5730,12.7180,-48.7790,34.0800
1.6245,0.0800,0.0170,1.1770,-3.0990,11.1910,-48.5040,34.0400
1.6366,0.0870,0.0110,1.1850,1.3890,11.4960,-46.6260,33.9900
1.6486,0.0820,-0.0020,1.1860,5.7710,11.3590,-45.9390,34.0400
1.6558,0.0830,-0.0080,1.1800,7.3130,10.0460,-43.4200,34.0400
1.6681,0.0690,-0.0110,1.1750,7.6790,10.5950,-46.0610,34.0800
1.6750,0.0840,-0.0040,1.1810,1.5110,13.5270,-46.5650,34.1300
1.6874,0.0890,0.0020,1.1700,-5.0380,14.0920,-47.0380,33.9400
1.6928,0.0870,0.0080,1.1560,-6.6560,13.7250,-48.2750,34.0800
1.7064,0.1100,0.0200,1.1490,-1.8780,13.4050,-47.8470,34.1300
1.7186,0.1200,0.0040,1.1410,-0.7630,10.9310,-49.5880,34.1800
1.7255,0.1190,0.0050,1.1550,-2.7630,10.9920,-51.3130,34.0800
1.7380,0.1280,-0.0020,1.1590,0.0150,8.7180,-50.5650,34.1300
1.7448,0.1260,-0.0030,1.2110,-0.4890,9.3440,-51.9240,34.1800
1.7572,0.1150,0.0150,1.2240,-6.5500,12.3510,-50.5800,34.0800
1.7693,0.0990,-0.0250,1.2310,-3.8320,16.8850,-50.0150,34.0400
1.7760,0.0900,-0.0140,1.2360,-3.6030,18.5950,-50.0610,33.9900
1.7882,0.0820,-0.0250,1.1980,-3.3590,20.3660,-45.8320,34.2200
1.7951,0.0700,-0.0420,1.1740,0.3210,19.4960,-45.1300,34.0400
1.8076,0.0650,-0.0270,1.1700,-0.4580,18.1070,-45.2370,34.0800
1.8146,0.0740,-0.0200,1.1670,-0.9010,16.9010,-46.5650,34.1300
1.8263,0.0830,-0.0280,1.1770,-2.3510,17.8320,-47.2060,34.0800
1.8387,0.0800,-0.0140,1.1700,-2.8700,17.3280,-48.4730,34.0400
1.8455,0.0810,-0.0090,1.1630,-4.9470,17.8630,-49.6950,34.1300
1.8575,0.0810,-0.0120,1.1630,-5.6640,17.9850,-48.6720,34.0800
1.8647,0.0780,-0.0270,1.1620,-6.5650,18.0920,-48.0760,34.1300
1.8767,0.0750,-0.0290,1.1630,-8.7630,16.9470,-45.8930,34.0400
1.8888,0.0720,-0.0190,1.1800,-9.6790,17.7100,-44.5950,34.1800
1.8957,0.0920,-0.0140,1.1840,-10.2290,19.2060,-44.3510,34.1300
1.9077,0.0820,-0.0150,1.1820,-12.4730,21.8780,-45.2520,34.0800
1.9147,0.0710,-0.0400,1.1800,-15.3280,22.7330,-45.6030,34.0800
1.9265,0.0730,-0.0450,1.1800,-15.5270,25.7100,-44.2600,34.0400
1.9387,0.0770,-0.0650,1.1540,-21.2980,26.8700,-41.8780,34.0800
1.9456,0.0780,-0.0710,1.1290,-20.9310,25.7100,-38.2600,34.0800
1.9574,0.0810,-0.0670,1.1150,-19.6180,23.5730,-35.1150,34.0400
1.9634,0.1000,-0.0360,1.1220,-17.9240,19.5420,-33.5270,33.9900
1.9762,0.1070,-0.0100,1.1330,-17.3440,17.7250,-33.0230,34.0400
1.9885,0.1170,0.0200,1.1580,-15.9240,16.1830,-34.5950,34.1300
1.9950,0.1160,0.0330,1.1740,-12.1830,15.2820,-37.3590,34.0800
2.0072,0.1220,0.0450,1.1820,-5.0230,14.5340,-39.2980,34.0400
2.0146,0.1310,0.0400,1.1800,-3.1600,14.0610,-46.0610,34.0800
2.0265,0.1200,0.0120,1.2050,-4.7020,14.6870,-50.0760,34.0400
2.0390,0.1130,-0.0250,1.2180,-3.8930,18.6110,-49.8170,34.0400
2.0458,0.1050,-0.0600,1.1950,-3.7100,20.0000,-48.5190,34.1800
2.0579,0.0950,-0.0860,1.1720,-8.1530,21.2210,-47.7860,34.0800
2.0648,0.1020,-0.0900,1.1530,-10.7790,22.3970,-45.7400,34.0400
2.0766,0.0940,-0.0900,1.1490,-8.5650,21.9080,-44.6410,34.0800
2.0888,0.0970,-0.0620,1.1590,-5.6950,21.3440,-41.7100,34.1300
2.0958,0.1060,-0.0280,1.1630,-6.1220,23.0530,-40.9160,34.0400
2.1079,0.1110,-0.0100,1.1600,-12.0000,24.5340,-43.2060,34.0800
2.1150,0.1150,0.0120,1.1480,-20.4430,26.0000,-47.0840,34.1300
2.1267,0.1210,0.0180,1.1450,-18.9310,24.3510,-50.2140,34.1800
2.1389,0.1200,0.0140,1.1440,-12.2600,25.2370,-52.1830,34.1800
2.1461,0.1090,0.0010,1.1650,-5.0380,26.7330,-58.1220,34.0400
2.1583,0.0840,-0.0350,1.1680,2.0610,21.2670,-61.9690,34.0800
2.1650,0.1180,-0.0120,1.1920,3.0840,22.9920,-58.9470,34.0400
2.1771,0.0920,-0.0500,1.1970,3.2370,21.4050,-55.4810,34.0400
2.1892,0.0710,-0.0800,1.2080,3.0230,21.5420,-52.2750,34.0800
2.1964,0.0760,-0.1170,1.1990,1.8780,23.3440,-51.8020,34.1300
2.2085,0.0840,-0.1220,1.2290,-2.1220,23.3130,-51.6790,34.0800
2.2154,0.0860,-0.1340,1.2430,-0.3510,25.3130,-48.7790,34.0400
2.2276,0.0950,-0.1310,1.2390,2.6260,26.7480,-45.7710,34.0400
2.2345,0.0830,-0.1220,1.2300,2.0150,27.7560,-44.5500,34.0800
2.2470,0.0860,-0.1130,1.2270,5.9690,27.3590,-39.5880,33.9900
2.2590,0.0700,-0.1010,1.2090,11.6640,26.6260,-36.1370,34.1300
2.2659,0.0700,-0.0710,1.1960,9.2820,27.4500,-36.3360,34.0800
2.2780,0.0660,-0.0520,1.1770,6.2900,27.8630,-40.1830,34.0400
2.2849,0.0750,-0.0300,1.1750,3.6790,27.6490,-40.9160,33.9900
2.2974,0.0860,-0.0240,1.1460,-1.3740,27.1910,-34.2140,34.0800
2.3092,0.0820,-0.0460,1.1210,-1.7100,25.0530,-40.6560,34.1300
2.3166,0.0630,-0.0380,1.1210,-0.1980,29.9540,-41.5270,33.9900
2.3284,0.0910,-0.0380,1.1420,-10.1220,10.3970,-41.9690,34.0400
2.3349,0.0880,-0.0230,1.1580,-4.9010,26.5650,-43.3890,34.1300
2.3474,0.0960,0.0060,1.1440,-10.1370,13.9850,-44.6560,33.9900
2.3530,0.0830,0.0160,1.1930,-8.1830,18.9160,-47.3890,34.0400
2.3666,0.0910,0.0010,1.1850,-3.9540,13.8930,-51.0380,33.9900
2.3785,0.0650,-0.0320,1.1940,-1.9540,16.5040,-56.1370,34.0800
2.3854,0.0520,-0.0730,1.1840,1.4050,15.4050,-57.8930,34.1300
2.3980,0.0360,-0.1050,1.1790,1.8320,13.9540,-58.2140,34.0800
2.4049,0.0470,-0.1020,1.1670,-0.6260,13.3740,-56.2750,34.0400
2.4170,0.0410,-0.1180,1.1460,-2.0760,11.8470,-53.8930,34.0400
2.4290,0.0530,-0.1040,1.1680,-3.3590,9.3890,-52.9920,34.0800
2.4357,0.0640,-0.0870,1.1880,-2.0920,9.5730,-51.8630,34.0400
2.4480,0.0680,-0.0700,1.2110,-3.8470,10.1980,-51.9850,33.9900
2.4551,0.0830,-0.0600,1.1990,-5.7100,11.6640,-50.7940,34.0800
2.4670,0.0750,-0.0660,1.2380,-6.7480,10.0460,-50.1070,34.0400
2.4793,0.1160,-0.0520,1.1680,-3.0690,14.1530,-50.3210,34.0800
2.4859,0.1250,-0.0540,1.1790,-0.1070,16.5950,-50.3970,34.1300
2.4983,0.1290,-0.0340,1.2130,-9.7400,12.4890,-53.1760,34.1300
2.5053,0.1140,-0.0150,1.1910,-7.8930,16.5950,-55.2520,33.9900
2.5172,0.1350,-0.0100,1.1920,-1.2370,18.5950,-53.2520,34.1300
2.5228,0.1070,-0.0330,1.2330,3.1450,18.8240,-51.4960,34.0400
2.5363,0.1060,-0.0190,1.1700,-0.7940,21.4050,-52.5950,34.0400
2.5485,0.1000,-0.0500,1.1450,-3.6790,20.5040,-54.5950,34.0400
2.5553,0.0910,-0.0710,1.1460,1.7710,19.4810,-54.5950,34.0800
2.5674,0.0830,-0.0800,1.1610,5.8470,19.1450,-52.9310,34.0800
2.5749,0.0790,-0.0890,1.1770,5.1910,18.3660,-53.6490,34.0400
2.5867,0.0870,-0.0850,1.1690,-1.7400,20.5500,-53.3440,34.0800
2.5990,0.0980,-0.0800,1.1790,-7.5110,22.5340,-53.4660,34.1300
2.6060,0.1190,-0.0460,1.1890,-8.5800,21.4200,-52.3820,34.0400
2.6182,0.1220,-0.0210,1.1970,-5.8470,21.5270,-50.9620,34.0800
2.6247,0.1350,0.0120,1.2030,-2.5650,21.4960,-51.2060,34.0400
2.6373,0.1320,0.0210,1.1940,7.1910,23.9540,-52.2140,34.0800
2.6492,0.1260,0.0060,1.2090,1.3740,20.3510,-53.9240,34.0800
2.6565,0.1270,-0.0140,1.2060,5.8930,22.7330,-55.3590,34.1300
2.6684,0.1070,-0.0550,1.2100,9.5110,24.2290,-55.0840,33.9900
2.6755,0.0890,-0.0790,1.2180,9.4810,26.5950,-54.9310,34.1300
2.6879,0.0970,-0.0830,1.1970,4.0920,27.4200,-55.0690,34.0400
2.6950,0.0820,-0.0730,1.1980,-7.9240,31.3440,-57.4050,34.0800
2.7070,0.0780,-0.0420,1.1840,-10.9310,30.3050,-56.0150,34.0400
2.7191,0.0890,-0.0210,1.1590,-6.5040,26.6560,-54.6110,34.0800
2.7260,0.0880,-0.0330,1.1520,3.6030,24.4890,-53.2670,34.0400
2.7382,0.0990,-0.0380,1.1640,5.4960,21.5880,-52.8090,34.1300
2.7449,0.1050,-0.0440,1.1670,5.8170,20.9310,-51.1760,33.9900
2.7575,0.0920,-0.0570,1.1840,5.1150,20.0760,-50.5800,34.1800
2.7632,0.0850,-0.0500,1.1850,-0.0460,21.8780,-50.6560,34.1300
2.7762,0.0860,-0.0330,1.1740,-6.2750,21.9080,-51.9540,34.0800
2.7886,0.0880,-0.0060,1.1700,-6.6870,21.0380,-50.5500,34.1300
2.7953,0.0920,-0.0230,1.1720,-6.2900,17.9240,-50.0610,33.9400
2.8077,0.0920,0.0080,1.1910,-6.5040,21.3890,-51.9390,34.0800
2.8145,0.0890,0.0280,1.1920,-11.2820,19.6640,-53.5730,34.1300
2.8265,0.0960,0.0230,1.1920,-7.9540,18.9920,-55.0530,34.1800
2.8389,0.0850,-0.0050,1.1830,-1.8630,17.1760,-56.0610,34.0800
2.8458,0.0820,-0.0370,1.1720,6.5040,15.3280,-52.9620,34.0400
2.8579,0.0930,-0.0480,1.1700,13.8470,13.8930,-50.2600,34.0800
2.8650,0.0920,-0.0570,1.1680,10.7330,14.6410,-51.9540,34.0400
2.8769,0.0980,-0.0900,1.1460,17.9690,9.6950,-48.5340,34.0400
2.8890,0.0840,-0.0840,1.1530,29.3130,7.5420,-47.6180,34.0800
2.8963,0.0790,-0.0550,1.1810,25.4810,13.1760,-54.1220,34.0400
2.9083,0.1090,0.0110,1.1830,9.9540,17.2210,-55.3740,34.0800
2.9156,0.1030,0.0440,1.1520,-2.1530,17.1150,-53.5880,34.0400
2.9276,0.0910,0.0610,1.1190,-12.0150,16.4580,-55.9390,34.1300
2.9342,0.1030,0.0220,1.0880,-13.4810,16.1370,-56.7180,34.0800
2.9469,0.1080,0.0050,1.0720,-10.4580,12.5500,-56.4270,34.1300
2.9586,0.1020,0.0060,1.0970,-11.4660,10.1370,-57.6490,34.0400
2.9654,0.1180,-0.0150,1.0950,-9.6340,8.0310,-55.7250,34.0800
2.9779,0.1100,-0.0390,1.1210,-8.0000,3.9240,-52.2750,34.0400
2.9845,0.1190,-0.0250,1.1760,-11.0080,5.1150,-51.9080,34.0800
2.9971,0.1330,-0.0180,1.1990,-12.2440,8.8550,-50.3660,34.1800
3.0090,0.1250,-0.0030,1.2170,-15.9540,12.9620,-51.8320,34.1300
3.0156,0.1200,0.0150,1.2310,-23.8170,18.0000,-52.8090,34.0800
3.0279,0.1200,-0.0040,1.1970,-19.4050,20.3360,-48.0760,34.1300
3.0345,0.1290,-0.0170,1.1650,-8.0760,19.2370,-44.9620,34.0400
3.0469,0.1250,-0.0180,1.1430,0.0000,16.7480,-43.9240,34.1300
3.0590,0.1400,-0.0390,1.1250,15.1300,14.3970,-40.5190,34.1300
3.0660,0.1180,-0.0430,1.1440,17.7560,11.9690,-43.4660,34.0800
3.0782,0.1450,-0.0350,1.1310,14.4270,15.9240,-45.4200,34.0800
3.0847,0.1330,-0.0730,1.1370,9.3890,16.5190,-42.3820,34.0400
3.0972,0.1210,-0.0810,1.1510,-1.4960,16.5950,-39.7560,34.0800
3.1093,0.1140,-0.0840,1.1610,-9.4810,18.3970,-40.9010,34.0400
3.1163,0.1300,-0.0330,1.1650,-12.7790,18.0760,-40.7790,34.1300
3.1284,0.1310,-0.0480,1.1580,-8.5340,22.6110,-39.9690,34.1800
3.1350,0.1350,-0.0440,1.1650,-3.7400,22.2600,-39.8930,34.0400
3.1475,0.1330,-0.0340,1.1660,-4.3970,24.1980,-38.8400,34.0800
3.1593,0.1460,-0.0150,1.1380,-3.6180,23.7560,-39.6490,34.0400
3.1665,0.1720,0.0220,1.1560,-4.9310,22.0920,-40.9470,34.0400
3.1786,0.1810,0.0560,1.1860,-12.2440,23.0990,-46.0150,34.1800
3.1855,0.1880,0.0930,1.1940,-18.3820,24.6110,-51.5270,34.1300
3.1976,0.1820,0.0720,1.1970,-19.5270,25.3590,-57.9690,33.9900
3.2046,0.1620,0.0210,1.2360,-14.0150,20.0610,-59.6490,33.9900
3.2167,0.1460,-0.0210,1.2280,-0.0610,33.0080,-57.9080,34.1300
3.2285,0.1250,-0.0940,1.2240,-5.0380,24.2140,-59.2060,33.9900
3.2354,0.0900,-0.1420,1.2180,-14.1220,30.9010,-61.6490,34.0400
3.2477,0.0770,-0.1450,1.2380,-16.6720,31.0080,-59.7250,34.1300
3.2546,0.0570,-0.1430,1.2480,-15.0690,32.5650,-55.1150,34.0800
3.2663,0.0720,-0.1300,1.2210,-19.2670,32.6410,-54.5190,34.1300
3.2785,0.0860,-0.1050,1.2160,-27.0080,33.9690,-53.2980,34.0800
3.2852,0.0770,-0.1180,1.2090,-20.9310,34.6870,-51.4350,34.0800
3.2974,0.0560,-0.1020,1.2610,-26.6720,37.6490,-50.7480,34.1300
3.3093,0.0730,-0.0530,1.2430,-31.6790,41.8630,-50.7180,34.0800
3.3162,0.0740,-0.0300,1.1750,-32.3050,40.5500,-51.0990,34.1300
3.3284,0.0810,-0.0400,1.1410,-27.1760,35.8780,-54.0760,34.1300
3.3349,0.0930,-0.0180,1.1040,-17.8320,29.8170,-53.8930,33.9900
3.3472,0.0810,-0.0750,1.1130,-1.0080,24.1530,-52.5800,34.1300
3.3593,0.0670,-0.0970,1.1470,3.4350,19.8780,-54.3820,34.0800
3.3660,0.0500,-0.1140,1.1550,1.0990,17.9540,-53.9540,34.1300
3.3784,0.0260,-0.1160,1.1760,-1.8630,18.3510,-52.6110,33.9400
3.3852,0.0270,-0.1280,1.1690,-2.8550,16.4270,-50.5340,34.0800
3.3975,0.0330,-0.1100,1.1560,-8.9310,17.2820,-49.8170,34.0400
3.4046,0.0430,-0.0780,1.1670,-10.5040,17.0530,-48.8550,34.1300
3.4163,0.0530,-0.0610,1.1700,-10.1070,16.2140,-50.5040,34.0800
3.4284,0.0500,-0.0470,1.1540,-11.5570,17.6790,-51.9240,34.1300
3.4351,0.0420,-0.0890,1.1150,-6.1980,13.8780,-50.7020,34.1800
3.4475,0.0430,-0.1250,1.1000,2.7180,9.9850,-50.2290,34.0800
3.4546,0.0420,-0.1400,1.1520,2.7020,8.8400,-50.3970,34.0400
3.4664,0.0490,-0.1300,1.1750,-3.9080,9.9390,-51.8930,34.0800
3.4788,0.0010,-0.1360,1.2370,-14.3970,9.1600,-52.2140,34.0400
3.4860,0.0340,-0.1400,1.2150,-5.6950,12.7180,-50.0920,34.0400
3.4979,0.0320,-0.1430,1.2220,3.0080,15.3740,-46.6410,34.0400
3.5050,0.0370,-0.1600,1.2100,-8.6720,15.0690,-47.2520,34.1300
3.5172,0.0410,-0.1580,1.2010,-14.1220,17.6950,-46.8550,34.1800
3.5291,0.0520,-0.1200,1.2050,-3.8020,19.9690,-43.6790,34.1300
3.5358,0.0630,-0.1120,1.2170,2.5040,17.5420,-42.2440,34.1300
3.5481,0.0570,-0.1450,1.2270,0.0610,20.5800,-43.4810,34.0800
3.5554,0.0470,-0.1450,1.2360,-2.2290,22.4430,-43.2980,34.1300
3.5672,0.0600,-0.1220,1.2430,-0.6110,25.8320,-42.1370,34.0800
3.5794,0.0690,-0.1060,1.2300,-2.8400,29.4960,-41.1450,34.0800
3.5866,0.0640,-0.1010,1.2120,-3.3740,30.9770,-39.7250,34.0400
3.5985,0.0560,-0.1040,1.1660,-5.5270,32.0460,-40.7330,34.0800
3.6055,0.0650,-0.0900,1.1490,-2.5950,29.6180,-43.1910,34.0400
3.6172,0.0580,-0.0980,1.1370,4.2600,28.7020,-43.2060,34.0400
3.6243,0.0730,-0.0810,1.1460,8.3510,26.7630,-43.2980,34.1300
3.6368,0.0720,-0.0830,1.1520,6.3210,25.2820,-42.9620,34.1300
3.6487,0.0740,-0.0880,1.1760,4.0310,24.4890,-42.3970,34.0800
3.6557,0.0680,-0.0880,1.1830,2.8700,24.0310,-42.6870,34.0800
3.6680,0.0710,-0.1060,1.1710,5.4050,24.1370,-41.6490,34.0400
3.6748,0.0480,-0.1180,1.1700,9.0530,23.8930,-39.0690,33.9900
3.6872,0.0460,-0.1040,1.1830,8.9160,24.7790,-34.4270,34.0400
3.6996,0.0450,-0.1030,1.1720,2.5040,25.9690,-34.3820,34.1300
3.7062,0.0620,-0.0820,1.1640,-1.8470,26.0760,-34.6560,33.9900
3.7185,0.0790,-0.0590,1.1540,1.2370,24.5800,-35.4050,34.0400
3.7254,0.0720,-0.0680,1.1560,5.2060,24.2600,-35.0380,34.1800
3.7377,0.0690,-0.0750,1.1350,8.6260,24.1070,-33.9080,34.1300
3.7445,0.0660,-0.0760,1.1320,6.8400,21.2520,-33.7560,34.1300
3.7571,0.0680,-0.0620,1.1300,1.8470,21.3740,-32.7480,34.0800
3.7690,0.0610,-0.0600,1.1220,-0.3210,18.3660,-31.0840,34.0400
3.7757,0.0590,-0.0540,1.1540,-0.9620,18.4580,-31.8020,33.9400
3.7881,0.0610,-0.0500,1.1690,1.7250,17.6340,-32.4270,34.0800
3.7951,0.0550,-0.0600,1.1770,4.4430,17.5880,-35.4200,34.1300
3.8074,0.0480,-0.0760,1.1610,7.0840,16.3660,-37.1600,34.0800
3.8132,0.0520,-0.0950,1.1540,10.6110,14.6560,-29.7400,34.0400
3.8264,0.0520,-0.1140,1.1620,10.3360,15.3890,-26.1370,34.0400
3.8387,0.0590,-0.0920,1.1990,5.1300,17.3740,-22.8550,34.0800
3.8455,0.0790,-0.0600,1.2050,-6.6410,19.4200,-25.8320,33.9400
3.8576,0.0930,-0.0120,1.1960,-14.6870,21.4660,-29.0990,34.0400
3.8642,0.1000,-0.0050,1.1610,-16.1370,21.7250,-33.7250,34.0800
3.8765,0.0820,-0.0010,1.1600,-13.4350,21.3130,-35.5270,34.1300
3.8886,0.0630,-0.0450,1.1520,-5.6180,18.8550,-39.1150,33.9900
3.8955,0.0520,-0.0610,1.1520,7.8470,15.9850,-36.8850,34.0400
3.9076,0.0410,-0.1230,1.1810,6.5340,14.5500,-39.1600,33.9400
3.9146,0.0190,-0.1340,1.2100,-2.3360,15.1450,-36.4120,33.9900
3.9265,0.0350,-0.1370,1.2150,-10.5950,17.7250,-34.4890,34.0400
3.9389,0.0590,-0.1240,1.2210,-13.8020,17.5270,-34.8090,34.0800
3.9458,0.0570,-0.1190,1.2240,-8.9010,18.2600,-33.6640,34.0400
3.9576,0.0710,-0.1180,1.2140,-1.7710,18.8240,-31.6640,34.1300
3.9650,0.0630,-0.1060,1.2140,2.1530,18.7480,-29.2210,34.0800
3.9772,0.0720,-0.0940,1.2080,0.8400,20.3660,-28.6410,34.0400
3.9891,0.0810,-0.0850,1.1890,-4.2750,19.9390,-29.3130,34.1300
3.9960,0.0940,-0.0730,1.1660,-6.0000,20.4430,-31.2820,33.9900
