Time,AX,AY,AZ,GX,GY,GZ,T
0.0000,0.0140,-0.0980,1.0180,0.7790,21.3280,-14.6870,34.0800
0.0003,0.0060,-0.0500,1.1040,6.8850,17.8780,-14.3360,34.1300
0.0007,0.0410,-0.0260,1.1320,7.5730,15.9080,-12.8850,34.1300
0.0010,0.0460,-0.0300,1.1560,0.6720,16.7330,-16.4120,34.1800
0.0013,0.0440,0.0130,1.1860,-6.9620,21.6180,-17.9080,34.2200
0.0017,0.0660,0.0390,1.1540,-10.7480,22.1530,-18.1980,34.1800
0.0021,0.0630,0.0380,1.1280,-2.6720,23.7860,-18.5950,34.0400
0.0025,0.0860,0.0400,1.1270,6.9620,21.9240,-20.5340,34.1300
0.0029,0.0890,0.0260,1.1580,10.0150,23.1150,-22.5950,34.0800
0.0033,0.1020,-0.0050,1.1840,4.9010,21.7710,-27.4810,34.1300
0.0037,0.0850,0.0030,1.2480,-4.7180,29.8020,-29.9690,34.1300
0.0044,0.0890,0.0170,1.2530,-11.8020,32.8400,-28.9620,34.0800
0.0047,0.0570,0.0050,1.2350,-8.1830,38.1370,-26.8700,34.1300
0.0051,0.0380,-0.0100,1.2190,2.6870,40.4580,-24.9770,34.0800
0.0054,0.0550,-0.0180,1.1610,8.7180,39.0380,-21.5270,34.1800
0.0057,0.0440,-0.0270,1.1300,8.9620,38.5500,-22.0310,34.1300
0.0060,0.0320,-0.0020,1.1600,5.5730,36.8550,-21.9540,34.1800
0.0063,0.0270,-0.0060,1.1590,1.2370,35.7710,-25.4350,34.1300
0.0067,0.0090,-0.0230,1.1690,2.4580,36.6410,-27.1760,34.1300
0.0070,0.0070,0.0010,1.1750,1.7710,38.7180,-28.5500,34.1800
0.0073,-0.0030,0.0250,1.1810,-4.3660,38.9920,-32.7630,34.1300
0.0076,0.0080,0.0740,1.1600,-8.9010,37.6030,-37.6180,34.1800
0.0079,0.0110,0.0800,1.1490,-7.7250,37.6950,-41.1910,34.1800
0.0082,0.0110,0.0260,1.1250,6.7330,33.6640,-39.0990,34.1300
0.0085,-0.0020,-0.0410,1.1430,17.7100,29.8780,-34.5800,34.0800
0.0092,-0.0010,-0.0840,1.1560,16.5950,27.3130,-32.1830,34.2200
0.0095,-0.0070,-0.0900,1.1860,8.8090,30.3210,-30.4730,34.1300
0.0098,-0.0110,-0.0720,1.2250,3.5730,33.0840,-27.4200,34.0800
0.0101,-0.0150,-0.0300,1.2470,-1.6340,38.3360,-25.6340,34.1300
0.0104,-0.0210,-0.0000,1.2130,-0.1070,39.0380,-24.3050,34.1300
0.0107,-0.0220,-0.0010,1.1800,-2.5040,36.8850,-27.2210,34.0800
0.0110,-0.0360,0.0160,1.1610,-7.0990,37.3590,-30.8850,34.0400
0.0113,-0.0380,0.0430,1.1390,-10.6870,35.5880,-32.9770,34.0800
0.0116,-0.0400,0.0150,1.1120,-8.6110,33.7860,-30.7630,34.0800
0.0119,-0.0470,-0.0280,1.0930,-2.2900,31.4810,-30.5340,34.1300
0.0123,-0.0500,-0.0360,1.0900,-2.4120,27.0530,-30.3820,34.0800
0.0128,-0.0580,-0.0860,1.0910,-1.6490,27.2060,-30.4890,34.1300
0.0130,-0.0500,-0.1020,1.0870,-1.5730,28.1680,-28.2750,34.1300
0.0133,-0.0250,-0.0770,1.1060,-7.7250,25.6640,-23.2820,34.0800
0.0136,-0.0120,-0.0470,1.1130,-9.6340,21.2210,-19.0230,34.1300
0.0139,0.0100,0.0230,1.1590,-10.4430,17.8780,-18.6110,34.0800
0.0142,0.0240,0.0540,1.1990,-9.4810,17.7860,-20.7630,34.1800
0.0145,0.0390,0.0790,1.2280,-5.0080,18.1680,-24.2440,34.2200
0.0147,0.0260,0.0710,1.2310,-2.9620,18.9620,-27.4500,34.2700
0.0150,0.0190,0.0600,1.2300,-2.3660,20.5040,-33.0380,34.1300
0.0153,0.0020,-0.0040,1.1880,1.4350,22.3050,-34.6560,34.1300
0.0156,-0.0100,-0.0610,1.1600,-1.4200,23.4050,-36.7330,34.1800
0.0161,0.0070,-0.0850,1.1260,-12.4270,24.3660,-36.5950,34.1300
0.0164,0.0120,-0.0780,1.0990,-19.1600,22.9620,-34.2600,34.2200
0.0167,0.0290,-0.0540,1.0950,-13.0380,19.5270,-29.9080,34.1800
0.0169,0.0380,-0.0290,1.1490,-5.9390,14.2290,-29.8170,34.0400
0.0172,0.0640,0.0260,1.2130,-5.1760,8.5500,-31.5110,34.1800
0.0174,0.0750,0.0740,1.2060,2.4730,15.4960,-30.6260,34.1800
0.0177,0.0560,0.0550,1.1950,8.1530,17.1450,-32.1530,34.2200
0.0180,0.0400,0.0220,1.1760,7.5110,18.1070,-34.9920,34.1800
0.0182,0.0230,0.0080,1.1920,3.8020,16.5650,-35.3440,34.1300
0.0185,0.0180,-0.0020,1.2300,0.1220,16.3050,-35.6030,34.1300
0.0187,0.0040,-0.0080,1.2410,-3.9080,21.2370,-35.4660,34.1800
0.0190,0.0110,-0.0250,1.2160,-4.8090,24.0150,-35.5270,34.1300
0.0192,0.0080,-0.0350,1.1920,-7.3440,26.3970,-37.8630,34.0800
0.0195,0.0090,-0.0330,1.1840,-9.9850,25.9540,-38.2290,34.0800
0.0199,0.0120,-0.0170,1.1500,-8.0150,23.9080,-37.5110,34.2200
0.0202,0.0030,-0.0450,1.1320,-5.9850,21.4200,-37.0080,34.0800
0.0204,-0.0210,-0.0640,1.1260,-7.3440,20.1530,-37.3740,34.1300
0.0207,-0.0250,-0.0520,1.1620,-11.9850,20.3510,-37.0230,34.0400
0.0209,-0.0170,-0.0210,1.1560,-7.8020,20.1530,-36.0150,34.1800
0.0212,-0.0080,0.0080,1.1460,-3.2210,18.5040,-36.2900,34.1300
0.0214,-0.0010,0.0060,1.1380,-4.1980,17.7250,-37.8170,34.1300
0.0217,-0.0040,0.0140,1.0830,-7.4050,15.8020,-40.1530,34.2700
0.0220,0.0040,0.0270,1.0600,-4.7020,10.3970,-41.3280,34.1300
0.0222,-0.0080,-0.0220,1.0600,0.9470,5.7560,-42.3820,34.1800
0.0224,-0.0150,-0.0910,1.1120,2.3050,3.3130,-42.5950,34.0800
0.0226,-0.0230,-0.1060,1.1780,1.1150,3.8020,-39.2520,34.0400
0.0228,-0.0210,-0.1080,1.2350,-1.1760,8.0760,-34.4430,34.0800
0.0231,-0.0050,-0.0890,1.2370,-8.7940,16.4890,-33.0990,34.2200
0.0233,0.0040,-0.0640,1.2050,-13.4810,19.6790,-31.5570,34.1300
0.0235,0.0130,-0.0400,1.1660,-11.8780,15.2210,-30.3210,34.1300
0.0237,0.0370,-0.0180,1.1370,-9.0380,12.3510,-31.1150,34.1300
0.0240,0.0450,-0.0190,1.1400,-13.7710,9.6180,-33.2820,34.1800
0.0242,0.0520,0.0080,1.1460,-20.9920,7.8780,-38.5500,34.0800
0.0244,0.0540,0.0490,1.1830,-22.0310,6.9770,-42.8700,34.1300
0.0246,0.0460,0.0120,1.2020,-11.7560,6.7940,-47.3440,34.1800
0.0248,0.0710,-0.0190,1.2020,-3.0990,4.7180,-49.3280,34.1300
0.0251,0.0680,-0.0220,1.2390,-4.1220,14.0150,-54.7330,34.1300
0.0253,0.0310,-0.0800,1.2960,-46.1220,5.8170,-53.2060,34.1800
0.0255,0.0440,-0.0870,1.2400,-22.4730,12.9770,-46.1980,34.1300
0.0257,0.0320,-0.1470,1.2330,-7.5880,16.5040,-47.3130,34.1800
0.0260,0.0280,-0.1540,1.2460,-18.0150,23.9390,-46.5340,34.0800
0.0262,0.0420,-0.1390,1.2110,-20.5340,15.4960,-38.1070,34.1300
0.0264,0.0180,-0.1120,1.2120,-14.3510,16.3970,-34.4120,34.1800
0.0266,0.0460,-0.0590,1.2110,-16.3360,19.2670,-32.8240,34.1800
0.0269,0.0530,-0.0610,1.1890,-15.1150,16.6560,-34.2900,34.1300
0.0271,0.0540,-0.0280,1.2090,-14.5190,16.0150,-40.1370,34.1800
0.0273,0.0630,-0.0050,1.2440,-14.5190,14.1830,-43.4660,34.1300
0.0275,0.0460,-0.0430,1.2620,-9.7400,15.0530,-46.2440,34.1300
0.0277,0.0400,-0.0700,1.2540,-4.7790,18.1980,-48.1680,34.2200
0.0279,0.0330,-0.0990,1.2380,-1.6790,20.6110,-48.4580,34.1300
0.0281,0.0220,-0.1140,1.2330,-0.2600,21.3130,-48.3510,34.1800
0.0283,0.0160,-0.1130,1.2220,-1.8020,22.1370,-48.7940,34.1800
0.0285,0.0170,-0.1050,1.2190,-4.1070,24.2140,-45.8630,34.1300
0.0287,-0.0000,-0.1100,1.2250,-0.4890,25.2210,-44.1830,34.0800
0.0289,0.0010,-0.0940,1.2200,1.4350,25.9540,-43.1450,34.1300
0.0292,0.0040,-0.0830,1.2060,1.3440,26.6110,-42.6720,34.2200
0.0294,-0.0060,-0.0850,1.1770,4.3970,25.4960,-43.7400,34.0800
0.0296,-0.0040,-0.0890,1.1700,9.4960,22.5500,-44.1370,34.1300
0.0298,-0.0160,-0.0940,1.1700,7.6030,22.3970,-46.0920,34.0800
0.0300,-0.0150,-0.0640,1.1650,3.5570,18.2290,-45.4500,34.1800
0.0302,-0.0020,-0.0540,1.1570,4.0610,15.5270,-44.5950,34.1300
0.0304,-0.0050,-0.0560,1.1600,6.4890,16.5340,-45.0380,34.0800
0.0306,0.0080,-0.0590,1.1730,4.6870,18.6720,-45.9080,34.1300
0.0308,0.0200,-0.0540,1.1850,2.2440,18.5800,-45.7400,34.2200
0.0310,0.0230,-0.0500,1.1900,5.1450,18.4270,-46.6410,34.0800
0.0312,0.0280,-0.0300,1.1730,8.3820,17.4050,-44.1680,34.1300
0.0314,0.0240,-0.0190,1.1810,7.6950,18.2750,-44.5800,34.1300
0.0316,0.0280,-0.0210,1.1830,4.5040,20.1070,-45.2980,34.1300
0.0318,0.0190,-0.0280,1.1720,1.6030,22.1980,-47.1600,34.1300
0.0320,0.0110,-0.0410,1.1440,2.0920,22.8850,-47.1300,34.1800
0.0322,0.0150,-0.0480,1.1140,2.5950,22.4120,-46.1980,34.0800
0.0324,0.0220,-0.0430,1.0910,3.1910,20.1070,-45.2060,34.2200
0.0326,0.0090,-0.0680,1.1100,3.0690,17.3280,-46.9770,34.1800
0.0328,-0.0080,-0.0460,1.1470,-2.5800,16.3050,-47.8020,34.1300
0.0330,-0.0150,-0.0170,1.1960,-8.2900,17.8780,-45.9240,34.0400
0.0332,-0.0170,-0.0240,1.2060,-11.3590,21.1600,-45.2820,34.0800
0.0334,-0.0240,-0.0160,1.2040,-11.4500,23.3890,-47.4050,34.0400
0.0337,-0.0270,-0.0150,1.2040,-5.7860,25.0080,-47.1760,34.1300
0.0339,-0.0300,-0.0350,1.2010,-1.1300,24.7480,-48.1220,34.1800
0.0341,-0.0320,-0.0770,1.1830,-0.4430,23.6030,-49.9080,34.0400
0.0343,-0.0280,-0.1230,1.1770,0.8090,22.4430,-50.6870,34.1800
0.0345,-0.0210,-0.1350,1.1950,-0.4270,23.2670,-50.1980,34.0800
0.0347,-0.0250,-0.1460,1.1940,-1.5110,25.1150,-46.8850,34.1300
0.0350,-0.0110,-0.1010,1.1670,-2.5190,27.5110,-42.2600,34.1300
0.0352,-0.0060,-0.0760,1.1630,-6.0150,28.4430,-40.4580,34.2200
0.0353,-0.0120,-0.0540,1.1380,-8.8090,27.4350,-40.4730,34.0800
0.0365,-0.0130,-0.0120,1.1150,-5.3440,24.9160,-40.9770,34.0400
0.0484,-0.0110,-0.0190,1.1220,-1.7250,23.4810,-43.1910,34.2200
0.0551,-0.0070,-0.0220,1.1400,-4.6720,20.9770,-45.3740,34.0800
0.0674,-0.0210,-0.0390,1.1570,-3.0380,19.3280,-45.7400,34.0400
0.0741,-0.0190,-0.0560,1.1850,-3.9690,19.2980,-46.6720,34.0800
0.0861,-0.0140,-0.0650,1.1850,-8.9160,20.0150,-46.6110,34.1300
0.0982,-0.0220,-0.0990,1.2010,-9.4810,22.0000,-47.0530,34.1300
0.1049,-0.0270,-0.1060,1.2230,-10.4730,22.9470,-47.0080,34.0800
0.1170,-0.0230,-0.1180,1.2080,-9.3740,23.3890,-46.7180,34.2200
0.1227,-0.0180,-0.1000,1.1990,-5.4050,22.7180,-44.4890,34.1300
0.1359,-0.0160,-0.0940,1.2030,0.6720,21.6340,-41.6950,34.1800
0.1479,-0.0090,-0.0940,1.1890,3.2980,19.7560,-40.7940,34.2200
0.1549,0.0070,-0.0760,1.1990,2.9620,18.9160,-39.4960,34.1800
0.1672,0.0080,-0.0600,1.2040,5.2980,17.9850,-37.3740,34.0800
0.1740,0.0120,-0.0510,1.2080,6.3660,19.4050,-39.2520,34.0400
0.1863,0.0070,-0.0470,1.1950,5.7560,19.7560,-41.1300,34.1800
0.1986,0.0050,-0.0540,1.1850,4.6260,19.6950,-44.4120,34.2200
0.2056,0.0050,-0.0580,1.1730,3.9240,17.6640,-45.8630,34.2200
0.2178,-0.0060,-0.0700,1.1830,5.4500,18.8400,-45.5270,34.0800
0.2245,-0.0070,-0.0740,1.1810,6.2600,20.5950,-45.1450,34.0400
0.2369,0.0050,-0.0610,1.1820,4.5650,18.9160,-42.9310,34.1800
0.2489,0.0160,-0.0520,1.1860,6.7480,17.1150,-42.4270,34.1800
0.2560,0.0180,-0.0420,1.1640,9.1150,16.9160,-40.6110,34.1300
0.2683,0.0090,-0.0580,1.1830,14.4580,16.5190,-39.4050,34.1800
0.2752,0.0140,-0.0550,1.1820,14.0610,17.1760,-39.8630,34.1300
0.2875,0.0190,-0.0370,1.1680,7.6640,16.9470,-39.7560,34.2200
0.2941,0.0200,-0.0300,1.1590,6.2140,17.3280,-41.2060,34.1800
0.3063,0.0260,-0.0180,1.1410,6.6720,17.2370,-42.3660,34.1300
0.3186,0.0240,-0.0170,1.1470,3.2520,16.5800,-44.5950,34.1800
0.3258,0.0330,-0.0160,1.1520,0.9470,15.5270,-45.8170,34.1800
0.3377,0.0270,0.0030,1.1760,-0.4890,15.6950,-48.1530,34.1300
0.3450,0.0240,-0.0050,1.1840,-1.5880,16.7180,-50.4580,34.1800
0.3570,0.0170,-0.0120,1.1900,0.1370,17.6950,-50.2140,34.2200
0.3691,0.0150,-0.0230,1.1930,4.3360,17.9850,-50.2140,34.1300
0.3762,0.0260,-0.0260,1.1860,2.0460,18.3510,-49.6180,34.1800
0.3883,0.0210,-0.0280,1.1800,2.6110,18.0310,-48.1070,34.1300
0.3956,0.0120,-0.0310,1.1760,4.7480,18.1530,-48.3210,34.1800
0.4078,0.0220,-0.0280,1.1690,5.7710,16.9470,-46.3510,34.1300
0.4144,0.0200,-0.0380,1.1640,3.8470,17.1600,-47.8170,34.1300
0.4268,0.0230,-0.0370,1.1710,1.1300,18.0920,-48.2750,34.1800
0.4388,0.0180,-0.0460,1.1750,-0.5650,18.9010,-48.7630,34.1800
0.4458,0.0290,-0.0310,1.1730,0.2140,19.5110,-47.2820,34.1300
0.4580,0.0260,-0.0330,1.1610,2.3360,20.3050,-45.5110,34.0800
0.4648,0.0280,-0.0330,1.1530,-1.0230,19.5570,-47.5880,34.1300
0.4772,0.0400,-0.0110,1.1670,-1.7710,18.3970,-47.8780,34.0400
0.4830,0.0450,-0.0090,1.1620,0.8090,17.6790,-49.4810,34.0800
0.4962,0.0420,-0.0150,1.1830,-0.4120,17.4350,-50.8240,34.1300
0.5084,0.0240,-0.0350,1.1980,0.9770,17.5270,-49.9690,34.0800
0.5154,0.0240,-0.0280,1.2030,2.8850,20.0920,-47.5730,34.1800
0.5276,0.0290,-0.0360,1.1950,-1.3280,22.5950,-50.5650,34.2200
0.5342,0.0210,-0.0220,1.1830,-6.4120,23.8170,-52.2750,34.0800
0.5465,0.0250,-0.0070,1.1690,-5.4660,23.0690,-50.9920,34.1300
0.5586,0.0170,-0.0110,1.1700,0.0000,22.2600,-50.9310,34.1300
0.5655,0.0130,-0.0150,1.1780,-1.9080,20.4270,-51.2980,34.1800
0.5776,-0.0010,-0.0200,1.1650,-2.4890,20.2440,-51.3440,34.1300
0.5850,-0.0030,-0.0150,1.1660,1.7710,19.5420,-49.7710,34.1300
0.5965,-0.0010,-0.0190,1.1870,3.9850,20.2900,-49.8470,34.1800
0.6089,0.0210,-0.0120,1.1990,-0.6410,21.0990,-51.7710,34.1300
0.6154,0.0130,-0.0350,1.1820,0.1220,21.0530,-51.2060,34.0800
0.6280,0.0200,-0.0600,1.1620,7.6340,19.7400,-50.7480,34.0800
0.6351,0.0240,-0.0560,1.1790,8.5040,17.5110,-49.6490,34.2200
0.6471,0.0160,-0.0340,1.2000,2.6870,18.4120,-50.5340,34.1800
0.6543,0.0190,0.0010,1.2120,-3.3890,19.1910,-50.8240,34.1300
0.6665,0.0070,0.0070,1.2040,-3.2520,20.9310,-51.7100,34.1300
0.6785,0.0100,0.0050,1.2000,-2.9160,21.3280,-53.7250,34.0800
0.6856,0.0170,0.0150,1.1980,-1.3130,20.2750,-53.1760,34.1300
0.6975,0.0090,-0.0140,1.1860,2.3210,19.8470,-53.6030,34.1800
0.7048,0.0150,-0.0330,1.1800,4.4580,18.1220,-53.8020,34.1800
0.7170,0.0000,-0.0550,1.1850,6.7480,16.9160,-53.7560,34.1300
0.7290,-0.0150,-0.0530,1.1940,7.1150,17.8170,-52.1680,34.1800
0.7360,0.0040,-0.0370,1.1940,2.0460,19.3130,-51.8320,34.1800
0.7481,0.0050,-0.0350,1.1720,3.5270,19.2820,-49.3130,34.1300
0.7550,0.0090,-0.0370,1.1410,4.6110,19.9080,-50.2750,34.0800
0.7674,0.0110,-0.0130,1.1410,2.1370,17.8020,-51.3130,34.1300
0.7747,0.0170,0.0140,1.1670,0.3050,16.3210,-52.6110,34.0400
0.7869,0.0130,0.0250,1.1630,0.9010,14.6560,-51.5730,34.0800
0.7987,0.0090,0.0200,1.1630,-1.6030,16.7180,-53.3440,34.2200
0.8058,0.0010,0.0120,1.1670,-3.0380,16.4270,-53.9540,34.0800
0.8182,-0.0000,-0.0080,1.1710,-0.5340,16.4270,-53.8630,34.0800
0.8248,0.0070,-0.0190,1.1650,3.7710,14.1830,-51.4200,34.1300
0.8372,0.0080,-0.0260,1.1650,2.3210,12.4730,-50.5040,34.1800
0.8444,0.0040,-0.0250,1.1660,1.4050,12.1830,-49.6950,34.1300
0.8563,0.0050,-0.0350,1.1900,-0.4580,12.9620,-48.1680,34.1300
0.8684,0.0100,-0.0150,1.1740,-5.2980,13.9540,-48.0000,34.1800
0.8754,0.0110,-0.0160,1.1680,-4.4430,13.4660,-47.1600,34.1300
0.8874,0.0210,-0.0100,1.1540,-2.1530,12.7630,-48.0760,34.0400
0.8941,0.0260,-0.0130,1.1570,-3.0690,10.8240,-49.5570,34.1800
0.9064,0.0140,0.0020,1.1770,-5.3130,10.3660,-49.8020,34.2200
0.9187,0.0310,0.0240,1.1880,-9.5270,11.8780,-50.3970,34.1800
0.9258,0.0280,0.0310,1.2060,-5.4960,12.2440,-52.7020,34.0800
0.9379,0.0370,0.0120,1.2090,-3.6340,12.4270,-55.2820,34.1300
0.9452,0.0420,-0.0210,1.2160,-0.9620,12.1220,-57.0530,34.0800
0.9569,0.0380,-0.0470,1.2270,5.5420,14.1220,-55.9240,34.1800
0.9691,0.0350,-0.0780,1.2430,4.0610,17.3130,-56.9770,34.1300
0.9762,0.0270,-0.0900,1.2400,3.9240,20.0460,-55.0990,34.0800
0.9883,0.0210,-0.0920,1.2010,7.3590,20.3660,-53.0380,34.1300
0.9955,0.0180,-0.0820,1.1820,7.7100,21.4500,-50.1530,34.0400
1.0076,0.0310,-0.0400,1.1720,3.3440,22.3210,-48.3820,34.2700
1.0143,0.0420,0.0010,1.1470,-1.8470,22.8550,-48.8400,34.1300
1.0264,0.0520,0.0390,1.1270,-2.4890,21.2820,-49.8170,34.0800
1.0388,0.0710,0.0620,1.1270,1.5110,19.4500,-51.7250,34.1300
1.0458,0.0690,0.0650,1.1510,4.5040,18.4120,-54.0920,34.1300
1.0583,0.0630,0.0510,1.1670,4.9470,18.5650,-54.9920,34.1800
1.0651,0.0550,0.0270,1.1660,5.6340,19.6340,-56.1220,34.1300
1.0774,0.0370,0.0060,1.1690,1.7710,21.0530,-55.7400,34.1300
1.0843,0.0310,0.0100,1.1660,-1.4660,22.1530,-55.2980,34.0800
1.0967,0.0300,0.0220,1.1530,-6.2750,22.5650,-55.1600,34.2200
1.1090,0.0340,0.0290,1.1420,-9.4050,21.9540,-55.3590,34.1300
1.1159,0.0230,-0.0000,1.1240,-5.8320,19.5420,-56.3360,34.0800
1.1279,0.0170,-0.0080,1.1440,-1.4200,17.2210,-56.6260,34.1300
1.1350,0.0140,-0.0240,1.1630,2.7020,16.2750,-55.3590,34.0800
1.1472,0.0120,-0.0380,1.1750,1.7560,17.1760,-55.8930,34.0800
1.1538,0.0020,-0.0470,1.1780,-1.6180,18.7790,-55.1910,34.2200
1.1663,0.0110,-0.0550,1.1720,-2.4270,20.6720,-52.0760,34.1800
1.1785,0.0190,-0.0350,1.1560,-5.9080,21.0990,-50.2750,34.1300
1.1854,0.0420,-0.0070,1.1390,-7.9850,19.8780,-48.9160,34.1300
1.1975,0.0440,0.0000,1.1310,-2.7630,19.0530,-48.2600,34.0800
1.2042,0.0420,0.0180,1.1330,-0.4730,18.6870,-48.1530,34.1300
1.2165,0.0370,0.0260,1.1350,-1.3440,17.7560,-49.2060,34.0800
1.2287,0.0350,0.0470,1.1300,-6.9310,17.4500,-50.6410,34.2200
1.2361,0.0350,0.0660,1.1360,-9.6030,17.3130,-53.7100,34.2200
1.2482,0.0270,0.0480,1.1440,-9.2820,16.5650,-56.1980,34.1800
1.2551,0.0310,0.0350,1.1520,-8.6560,14.8850,-57.5270,34.1800
1.2674,0.0280,-0.0020,1.1550,-3.4500,12.3970,-57.1450,34.2200
1.2739,0.0280,-0.0480,1.1900,3.8470,11.2820,-56.1220,34.0800
1.2865,0.0350,-0.0620,1.2320,4.4430,13.9850,-53.6490,34.1300
1.2987,0.0380,-0.0820,1.2200,0.3660,15.9540,-52.7940,34.1300
1.3057,0.0500,-0.0590,1.2190,-0.5650,18.0460,-47.7400,34.0800
1.3177,0.0530,-0.0530,1.2170,0.3360,19.0690,-46.3050,34.1300
1.3246,0.0730,-0.0280,1.2150,-2.1530,19.0840,-47.2520,34.1800
1.3368,0.0860,0.0040,1.2290,-5.7860,20.1680,-50.2750,34.0800
1.3491,0.0890,0.0320,1.2350,-8.6110,23.8630,-54.1830,34.1300
1.3557,0.0760,0.0410,1.2030,-4.2140,27.0230,-55.6030,34.1800
1.3682,0.0570,0.0050,1.1810,-0.7480,26.0150,-58.3360,34.1300
1.3752,0.0470,0.0170,1.1770,-1.7100,25.6030,-57.7400,34.0400
1.3874,0.0400,0.0010,1.1390,-1.0380,24.0310,-55.7400,34.0800
1.3945,0.0400,0.0040,1.0990,-2.1980,19.6950,-54.6410,34.1300
1.4067,0.0330,-0.0030,1.0920,1.4500,18.0460,-52.7790,34.0800
1.4189,0.0340,-0.0090,1.1040,0.1680,14.8850,-51.8630,34.1300
1.4256,0.0260,-0.0080,1.1240,-2.6720,13.1600,-52.9620,34.0400
1.4378,0.0310,0.0100,1.1300,-8.2750,13.5570,-55.0080,34.0800
1.4451,0.0370,0.0200,1.1400,-10.7480,13.4660,-55.4050,34.2200
1.4568,0.0470,0.0260,1.2010,-10.3510,10.8090,-58.0000,34.2200
1.4690,0.0440,0.0250,1.2490,-8.0000,13.9240,-58.3360,34.0800
1.4761,0.0510,0.0150,1.2650,-5.0990,11.7560,-59.7400,34.1300
1.4882,0.0500,-0.0080,1.2840,0.9310,15.0530,-59.0530,34.1800
1.4953,0.0310,-0.0560,1.2780,4.7020,16.7330,-58.1680,34.0800
1.5074,0.0180,-0.0900,1.2520,3.7100,18.7630,-55.6030,34.1300
1.5142,0.0170,-0.1060,1.2230,1.9850,19.7100,-54.0310,34.1800
1.5269,0.0310,-0.0790,1.1980,-2.5800,21.1760,-52.8850,34.0800
1.5388,0.0350,-0.0510,1.1880,-5.8170,20.6870,-52.6870,34.1300
1.5458,0.0500,-0.0270,1.1720,-5.5730,19.4350,-54.1680,34.1800
1.5580,0.0500,-0.0070,1.1860,-0.9470,17.3130,-55.4810,34.0400
1.5645,0.0520,0.0200,1.2080,-1.5270,18.3360,-55.4660,34.1300
1.5770,0.0510,0.0140,1.1870,-0.3360,18.7020,-54.2440,34.1800
1.5890,0.0540,0.0280,1.1970,-0.4580,18.1370,-54.8850,34.1300
1.5961,0.0490,0.0320,1.1780,-0.1530,18.6410,-52.6260,34.1300
1.6084,0.0560,0.0200,1.1480,4.0310,16.9010,-51.0530,34.1300
1.6153,0.0520,0.0130,1.1390,4.2290,15.3890,-50.7480,34.1300
1.6278,0.0510,0.0030,1.1450,2.4430,13.6640,-51.8020,34.0800
1.6348,0.0470,0.0020,1.1510,-1.0080,12.8090,-52.7480,34.1800
1.6467,0.0580,0.0030,1.1490,-5.7250,12.6870,-52.9010,34.1300
1.6591,0.0590,-0.0070,1.1740,-5.9690,12.6560,-54.5040,34.1800
1.6657,0.0710,0.0050,1.2090,-2.5950,11.9390,-52.9010,34.1300
1.6781,0.0570,0.0010,1.2290,1.8630,12.6410,-51.9390,34.2200
1.6852,0.0550,0.0070,1.2380,5.3130,13.2210,-50.7330,34.0800
1.6976,0.0490,-0.0130,1.2170,8.5500,14.8090,-49.2980,34.0400
1.7045,0.0590,-0.0230,1.1980,8.3660,16.1220,-49.6490,34.2700
1.7166,0.0640,-0.0350,1.1940,8.3360,16.2140,-49.1760,34.0800
1.7288,0.0620,-0.0580,1.1880,9.3590,16.4730,-47.2210,34.0400
1.7359,0.0400,-0.0690,1.1880,5.7400,16.2750,-45.4350,34.0800
1.7481,0.0500,-0.0420,1.1800,3.7710,17.5110,-41.4050,34.0800
1.7553,0.0600,-0.0360,1.1530,9.1150,18.9770,-38.4890,34.1300
1.7675,0.0890,0.0080,1.1630,3.6340,19.4200,-41.4660,34.0800
1.7747,0.1060,0.0650,1.1540,-5.6640,19.2820,-44.9010,34.0400
1.7869,0.1060,0.0880,1.1540,-2.6260,19.5270,-46.3820,34.2200
1.7989,0.1030,0.0700,1.1610,0.9470,17.4200,-49.2670,34.2200
1.8058,0.1020,0.0540,1.1610,1.9080,17.7100,-50.0610,34.1300
1.8182,0.0980,0.0110,1.1510,3.8780,15.8020,-51.1910,34.1800
1.8251,0.1000,0.0000,1.1680,1.0380,13.7710,-52.0460,34.1800
1.8374,0.1280,0.0100,1.1360,-7.3740,9.9240,-51.3280,34.0400
1.8446,0.0590,-0.0040,1.1940,-3.6950,20.5800,-49.0080,34.0800
1.8566,0.0770,-0.0030,1.2030,-1.9690,13.0530,-46.9160,34.1300
1.8689,0.0570,-0.0290,1.1960,-0.8400,21.2370,-44.9160,34.1300
1.8758,0.0710,-0.0380,1.1940,-2.7630,18.9620,-41.3280,34.0800
1.8880,0.0660,-0.0380,1.1620,-5.4500,18.4120,-39.4350,34.1300
1.8949,0.0830,0.0000,1.1890,-10.7480,18.2900,-39.2060,33.9900
1.9069,0.0870,0.0360,1.1970,-17.6490,20.9920,-41.8020,34.0800
1.9189,0.1000,0.0720,1.1830,-20.6260,18.7790,-44.7480,34.0400
1.9261,0.1040,0.0690,1.1560,-10.7180,16.4270,-45.5420,34.1800
1.9378,0.0920,0.0340,1.1370,0.5500,16.5190,-44.9010,34.0800
1.9450,0.0770,-0.0180,1.1400,8.4730,13.0530,-43.2980,34.1300
1.9570,0.0620,-0.0700,1.1420,9.9390,9.0230,-41.4200,34.0800
1.9640,0.0520,-0.0850,1.1740,0.1830,9.4810,-41.2370,34.2200
1.9769,0.0590,-0.0820,1.1890,-5.9850,12.2600,-37.4960,34.1300
1.9885,0.0770,-0.0640,1.2000,-10.8090,9.3740,-35.7100,34.0400
1.9957,0.0930,-0.0210,1.2100,-7.8930,14.6560,-34.7940,34.1300
2.0075,0.0900,0.0090,1.2270,-10.7630,20.6260,-35.7860,34.1800
2.0146,0.0860,0.0370,1.1980,-11.4200,18.5040,-36.8240,34.0800
2.0269,0.1060,0.0730,1.1950,-9.7100,18.8090,-41.5420,34.1300
2.0387,0.1190,0.1090,1.2050,-9.7860,20.6260,-45.2210,34.0800
2.0459,0.1180,0.0730,1.1690,-5.1760,21.3130,-47.4050,34.1300
2.0583,0.1060,0.0350,1.1270,-0.2440,17.2670,-48.8550,34.1300
2.0652,0.1130,0.0070,1.1030,8.9160,9.7400,-46.6410,34.1800
2.0774,0.1010,-0.0100,1.1330,10.4730,11.7710,-43.4050,34.1300
2.0846,0.1000,-0.0450,1.1410,6.9920,11.8020,-40.0000,34.1800
2.0967,0.1020,-0.0460,1.1680,2.4430,15.1150,-36.7940,34.0800
2.1088,0.0910,-0.0350,1.2120,-5.0990,18.0000,-36.0460,34.1300
2.1157,0.0990,0.0050,1.2410,-14.0000,21.7560,-36.9010,34.0800
2.1279,0.0910,0.0320,1.2440,-14.1220,25.5730,-37.4050,34.1300
2.1345,0.0890,0.0520,1.2130,-11.1600,26.6410,-37.4810,34.1300
2.1468,0.0990,0.0460,1.1950,-5.1300,25.4500,-36.3050,34.1800
2.1591,0.0940,0.0390,1.1790,-0.1370,24.9310,-35.2210,34.1300
2.1658,0.0930,0.0010,1.1620,5.7560,24.4430,-37.6950,34.0800
2.1784,0.1070,-0.0040,1.1590,-5.6490,18.3970,-41.1300,34.1300
2.1855,0.0940,-0.0080,1.1770,1.0080,19.3280,-41.3590,34.1300
2.1972,0.0780,-0.0340,1.2070,2.4270,19.2060,-40.2290,34.1800
2.2043,0.0740,-0.0600,1.1930,-3.1910,25.2670,-38.3510,34.0800
2.2165,0.0740,-0.0470,1.1830,-6.2900,26.8850,-35.8020,34.1300
2.2287,0.0810,-0.0480,1.1680,-12.8550,28.5950,-37.3280,34.1800
2.2356,0.0860,-0.0310,1.1470,-12.2750,28.2290,-37.8170,34.2200
2.2473,0.0990,-0.0160,1.1380,-4.2440,24.0460,-35.3280,34.1300
2.2545,0.0990,-0.0040,1.1370,-4.4730,13.3130,-35.7100,34.1800
2.2665,0.0720,-0.0070,1.1820,1.5730,33.3740,-36.7790,34.0400
2.2786,0.0760,0.0120,1.1890,-12.3360,24.7330,-39.9390,34.1800
2.2858,0.0740,0.0090,1.1510,-7.9850,18.5800,-39.9540,34.0800
2.2977,0.0820,-0.0050,1.1570,-2.7940,16.1070,-40.3210,34.1300
2.3048,0.0570,-0.0390,1.1890,-2.8550,21.6340,-43.0530,34.0800
2.3170,0.0390,-0.0340,1.2350,0.8700,26.7480,-43.0230,34.1300
2.3290,0.0490,-0.0330,1.2200,-5.8470,26.2140,-41.0080,34.2200
2.3358,0.0430,-0.0180,1.2020,-13.3280,31.2980,-41.1760,34.0800
2.3478,0.0640,-0.0190,1.1520,-21.0990,28.7630,-40.0000,34.1300
2.3545,0.0850,-0.0370,1.1030,-11.1300,21.7100,-35.4350,34.0800
2.3670,0.0650,-0.0470,1.0940,-2.6410,15.4810,-35.3440,34.1300
2.3788,0.0760,-0.0510,1.1200,0.1980,12.0610,-34.1370,34.1300
2.3862,0.0810,-0.0340,1.1450,-4.6110,11.4660,-37.6030,34.1800
2.3980,0.0730,-0.0230,1.1790,-11.4500,11.7400,-41.3890,34.1800
2.4048,0.0780,-0.0170,1.1840,-15.5420,15.1300,-44.7330,34.1300
2.4169,0.0720,-0.0270,1.1980,-13.4500,15.1910,-45.7710,34.0800
2.4290,0.0820,-0.0140,1.2040,-14.9620,14.3970,-47.2060,34.1300
2.4354,0.0740,-0.0090,1.2120,-9.5570,17.4350,-45.7710,34.1300
2.4478,0.0720,-0.0210,1.2080,-4.3510,16.6110,-46.7330,34.1800
2.4549,0.0760,-0.0390,1.2200,-0.5800,17.7100,-46.3660,34.1300
2.4668,0.0910,-0.0530,1.2020,2.3360,16.0000,-45.0080,34.0800
2.4790,0.0880,-0.0520,1.1860,2.1370,15.5570,-44.0760,34.0800
2.4864,0.0830,-0.0470,1.1850,1.8020,16.5950,-45.0690,34.1300
2.4983,0.0800,-0.0260,1.2050,-0.5650,18.5800,-46.3050,34.0800
2.5053,0.0940,-0.0180,1.2160,-6.4120,20.9620,-47.3890,34.1300
2.5175,0.1020,-0.0160,1.1790,-4.2140,20.2600,-46.1220,34.1300
2.5244,0.1020,0.0060,1.1740,-3.3440,20.0460,-49.4500,34.0800
2.5365,0.1070,-0.0110,1.1620,-5.4810,22.3660,-51.5730,34.1300
2.5485,0.0840,-0.0320,1.1690,-1.0080,21.6950,-52.1680,34.1800
2.5553,0.0750,-0.0440,1.1670,3.3440,21.0990,-53.2670,34.0400
2.5678,0.0740,-0.0590,1.1690,6.0460,21.3740,-50.6870,34.0400
2.5746,0.0680,-0.0730,1.1610,4.5500,22.9920,-48.3510,34.0800
2.5871,0.0790,-0.0670,1.1340,-3.3440,22.2140,-47.0840,34.1300
2.5988,0.0650,-0.0580,1.1320,-6.8700,22.5500,-44.8400,34.1300
2.6059,0.0760,-0.0200,1.1330,-10.3050,22.4730,-45.2210,34.0800
2.6181,0.0880,0.0010,1.1320,-10.2600,20.3820,-44.8240,34.1300
2.6246,0.1120,0.0210,1.1270,-9.4050,17.7100,-45.8630,34.1800
2.6371,0.1110,0.0240,1.1420,-5.7860,16.2140,-48.3820,34.0800
2.6490,0.1150,0.0080,1.1690,-4.4430,14.7020,-52.5190,34.0400
2.6561,0.1250,0.0060,1.1860,-5.2670,15.5110,-55.1760,34.1800
2.6684,0.1190,0.0010,1.1940,-3.4500,14.0920,-54.5800,34.1300
2.6757,0.0930,-0.0310,1.2130,-0.3510,16.1980,-55.9690,34.0800
2.6874,0.0810,-0.0630,1.2140,0.3510,15.2370,-56.9770,34.1300
2.6946,0.1020,-0.0500,1.2210,-1.3590,17.7400,-55.7860,34.1300
2.7067,0.0940,-0.0690,1.2010,-1.0080,17.5270,-53.8780,34.1800
2.7188,0.0960,-0.0550,1.1910,-6.1370,19.2980,-54.9620,34.0400
2.7259,0.0930,-0.0340,1.1920,-11.7710,20.3050,-56.0610,34.1300
2.7379,0.0720,-0.0340,1.1830,-12.9470,23.5570,-56.8240,34.0800
2.7448,0.0770,-0.0230,1.1600,-10.3050,20.6560,-54.3970,34.1300
2.7563,0.0740,-0.0330,1.1590,-3.4200,19.5420,-53.3440,34.0800
2.7687,0.0840,-0.0350,1.1480,0.7790,17.5110,-51.9690,34.0800
2.7758,0.0850,-0.0370,1.1620,-1.2820,16.5500,-51.7100,34.1300
2.7876,0.0980,-0.0320,1.1570,-4.6110,16.5800,-52.5950,34.0800
2.7948,0.0970,-0.0390,1.1840,-6.4730,17.1300,-53.1450,34.1300
2.8067,0.0970,-0.0530,1.2020,-6.3050,16.7480,-52.8850,34.1300
2.8190,0.0990,-0.0520,1.2110,-2.1370,18.4430,-51.9690,34.0800
2.8257,0.0880,-0.0440,1.2140,1.1760,18.2440,-49.0080,34.0400
2.8378,0.0810,-0.0450,1.2070,2.2290,20.4580,-48.1680,34.1300
2.8451,0.0930,-0.0360,1.1770,-2.6870,21.2520,-48.4270,34.0800
2.8570,0.1030,-0.0150,1.1480,-5.8630,19.6340,-50.3820,34.0400
2.8691,0.1010,-0.0170,1.1450,-0.4890,16.8400,-51.5570,34.1800
2.8763,0.1100,-0.0110,1.1570,-0.4120,15.6640,-55.8170,34.1300
2.8881,0.1070,-0.0130,1.1850,-2.0150,16.0760,-56.8400,34.0400
2.8953,0.1030,-0.0210,1.1750,-3.9690,17.0690,-57.4500,34.0800
2.9073,0.1080,-0.0360,1.1710,-3.4810,17.4200,-55.2670,34.2200
2.9140,0.0970,-0.0620,1.1780,-3.8930,17.8630,-53.2820,34.1300
2.9264,0.0890,-0.0470,1.1820,-8.1220,19.2820,-52.9310,34.0800
2.9384,0.1010,-0.0180,1.1930,-10.5650,20.1830,-53.6950,34.0400
2.9453,0.1070,-0.0120,1.1890,-5.5880,19.4810,-52.1070,34.0800
2.9575,0.0920,-0.0230,1.1950,0.6870,20.1370,-51.5270,34.2700
2.9640,0.0860,-0.0270,1.1750,0.8240,20.2290,-50.8850,34.2200
2.9765,0.0820,-0.0370,1.1850,3.6640,20.3820,-53.2370,34.0800
2.9886,0.0750,-0.0310,1.1730,0.7940,21.3740,-53.6950,34.1800
2.9958,0.0850,-0.0300,1.1620,-2.4890,20.9160,-52.2290,34.1300
3.0079,0.0940,-0.0520,1.1430,0.3820,18.9310,-49.8170,34.0800
3.0145,0.0980,-0.0640,1.1550,1.3740,18.1680,-49.1760,34.1300
3.0270,0.1060,-0.0570,1.1660,0.0000,19.4350,-47.4500,34.0800
3.0390,0.1080,-0.0540,1.1690,-0.4890,19.7250,-46.7630,33.9900
3.0463,0.1050,-0.0330,1.1870,-5.8930,20.8090,-48.7940,34.1300
3.0582,0.1030,-0.0310,1.1780,-7.6950,22.6410,-49.2370,34.0800
3.0651,0.0990,-0.0380,1.1500,-7.9080,21.5110,-49.8170,34.0400
3.0770,0.0870,-0.0320,1.1550,-4.5950,21.6340,-48.3210,34.1300
3.0844,0.0990,-0.0350,1.1490,-4.1220,21.5110,-47.6030,34.0800
3.0962,0.1120,-0.0260,1.1480,-3.4660,20.4120,-47.4050,34.2200
3.1083,0.1080,-0.0010,1.1610,-2.4730,17.3130,-48.0150,34.0800
3.1149,0.1200,0.0030,1.1460,-6.4270,17.2670,-48.1980,34.0800
3.1274,0.1120,0.0010,1.1550,-1.1760,18.3970,-48.8550,34.1300
3.1343,0.1130,-0.0160,1.1550,-2.9160,20.0610,-49.9080,34.0800
3.1466,0.0880,-0.0170,1.1480,-3.6790,19.4350,-49.3280,34.0400
3.1586,0.0880,-0.0190,1.1410,4.3510,15.5880,-49.6340,34.0400
3.1654,0.0970,-0.0320,1.1550,9.0230,14.7180,-54.3210,34.0800
3.1779,0.1320,0.0080,1.1740,9.5420,13.7100,-56.0920,34.1300
3.1848,0.1200,0.0030,1.1490,21.4200,15.8020,-49.2370,34.0800
3.1971,0.1550,0.0170,1.1750,18.6410,17.1300,-44.8400,34.0400
3.2040,0.1110,-0.0610,1.1690,10.1530,19.5110,-45.9540,34.0400
3.2163,0.1040,-0.0390,1.1670,2.6870,17.5880,-37.1910,34.0800
3.2284,0.1130,-0.0490,1.1530,-1.1150,20.1830,-36.0920,34.2200
3.2355,0.1220,-0.0300,1.1670,-8.2750,20.1070,-38.1370,34.1300
3.2473,0.1300,-0.0220,1.1890,-10.3360,21.7710,-38.7330,34.0800
3.2542,0.1270,-0.0220,1.2010,-11.0230,22.3210,-40.9010,34.0400
3.2663,0.1250,-0.0300,1.1910,-10.2140,20.8700,-42.9470,34.1800
3.2782,0.1170,-0.0530,1.1950,-6.7020,21.0690,-43.1910,34.0800
3.2853,0.1120,-0.0620,1.2020,-6.5040,22.8550,-44.4270,34.1300
3.2975,0.1160,-0.0610,1.2130,-13.5110,25.5570,-47.3890,34.0800
3.3042,0.1240,-0.0620,1.1840,-18.4120,26.5340,-45.6640,34.1300
3.3164,0.1350,-0.0540,1.1780,-17.6340,26.3820,-44.8700,34.1300
3.3284,0.1540,-0.0310,1.1770,-17.9540,24.9470,-44.7180,34.0800
3.3354,0.1570,-0.0080,1.1810,-9.8630,22.0310,-43.3590,34.0400
3.3472,0.1400,-0.0080,1.1820,-2.3050,20.5800,-43.6490,33.9900
3.3541,0.1390,0.0180,1.2110,-1.4500,23.4050,-48.1530,34.1800
3.3665,0.1470,0.0030,1.1940,1.7400,23.1300,-52.5800,34.0400
3.3787,0.1500,-0.0060,1.2000,-0.8400,23.2210,-57.2370,34.0800
3.3853,0.1490,-0.0050,1.2040,-3.1150,24.0310,-58.0310,34.1300
3.3976,0.1280,-0.0460,1.1970,-0.5650,24.0610,-56.6410,34.1300
3.4044,0.1130,-0.0760,1.1920,0.9470,22.7020,-54.9770,34.1800
3.4169,0.0870,-0.1180,1.1880,3.0840,23.3740,-53.2820,34.1300
3.4290,0.0740,-0.1220,1.2070,1.1450,22.0760,-50.3820,34.0800
3.4361,0.0760,-0.1130,1.2220,-5.1300,23.1760,-49.5270,33.9900
3.4480,0.0970,-0.0830,1.2190,-13.4500,25.3440,-47.2670,34.0400
3.4549,0.0960,-0.0730,1.2140,-12.7020,25.6640,-46.5500,34.1800
3.4670,0.0980,-0.0600,1.2480,-15.4200,21.8780,-45.5570,34.2200
3.4787,0.0890,-0.0400,1.1960,-3.9540,27.0840,-46.9310,34.1300
3.4860,0.0880,-0.0360,1.2090,3.7250,21.5880,-47.7710,34.0800
3.4980,0.0990,-0.0170,1.2050,5.2520,24.8550,-49.9690,34.0400
3.5048,0.0980,0.0030,1.1830,2.7940,22.0310,-51.7860,34.0800
3.5176,0.0720,-0.0220,1.1850,2.2290,23.0530,-54.2140,34.1300
3.5243,0.0450,-0.0620,1.1920,4.0150,22.5190,-54.2440,34.0400
3.5365,0.0280,-0.1030,1.1900,3.4350,23.2060,-52.3820,34.1800
3.5486,0.0170,-0.1160,1.1920,0.0920,26.1220,-53.0990,33.9900
3.5555,0.0160,-0.1240,1.1800,-5.7100,22.8090,-55.2370,34.1300
3.5680,0.0120,-0.1100,1.1980,-4.5950,19.2060,-54.2600,34.0800
3.5743,0.0130,-0.1160,1.2290,-3.4960,22.7790,-52.6560,34.1300
3.5869,0.0090,-0.1320,1.2330,-1.6950,23.8630,-49.7400,33.9900
3.5988,-0.0100,-0.1570,1.2240,0.4270,25.6790,-46.0000,34.0800
3.6060,-0.0000,-0.1510,1.2200,-0.9620,25.4050,-42.5190,34.1300
3.6180,-0.0110,-0.1390,1.2510,-3.3440,28.7180,-39.1150,33.9900
3.6246,0.0000,-0.1110,1.2220,-2.7180,30.4580,-36.1070,34.0800
3.6369,-0.0000,-0.1050,1.2270,6.4430,31.1600,-35.5270,34.0400
3.6487,-0.0020,-0.1130,1.2180,9.5420,34.3510,-36.7330,34.0800
3.6558,-0.0200,-0.1040,1.1980,4.3820,36.7790,-39.3280,34.1300
3.6679,-0.0190,-0.1040,1.1570,2.5190,37.4960,-38.5340,34.1300
3.6747,-0.0150,-0.1070,1.1310,1.6950,34.3210,-40.0760,34.0800
3.6868,0.0090,-0.0890,1.1570,1.0080,32.0760,-41.4660,34.2200
3.6990,0.0190,-0.0880,1.1890,8.8400,29.3890,-40.2900,34.0800
3.7061,0.0210,-0.0950,1.2530,19.4500,31.0990,-40.4580,34.1300
3.7184,0.0220,-0.0850,1.2900,20.9470,37.2060,-39.4200,34.1300
3.7253,0.0110,-0.0920,1.2810,21.6180,41.5110,-40.0310,34.0800
3.7375,-0.0200,-0.1070,1.2600,20.1680,47.1300,-37.3440,34.1300
3.7445,-0.0520,-0.1160,1.2470,8.4430,52.8090,-37.3890,34.1300
3.7560,-0.0620,-0.0710,1.2240,-3.9850,58.0610,-31.6790,34.1800
3.7684,-0.0730,-0.0760,1.1940,-4.9620,55.6790,-29.9080,34.1300
3.7753,-0.0710,-0.0430,1.1340,-9.7250,53.2820,-33.4350,34.1800
3.7873,-0.0660,-0.0140,1.1190,-5.1150,49.0530,-35.8630,33.9900
3.7991,-0.0670,-0.0060,1.1030,1.6180,45.5570,-39.1300,34.0400
3.8060,-0.0570,-0.0550,1.0700,9.1910,39.4350,-34.9620,34.0800
3.8182,-0.0880,-0.1070,1.0880,9.3740,31.2670,-33.5420,34.1300
3.8253,-0.0910,-0.0830,1.1520,3.3130,28.5500,-31.3440,34.1300
3.8371,-0.0570,-0.0380,1.2090,5.6180,26.9010,-28.7330,34.1300
3.8443,-0.0520,-0.0320,1.2480,10.2600,28.7940,-28.3820,34.1300
3.8561,-0.0710,-0.0240,1.2640,4.7940,35.3440,-28.9470,34.0800
3.8684,-0.0640,-0.0050,1.2560,-2.5950,35.4810,-32.2750,34.0800
3.8750,-0.0670,0.0020,1.2310,-10.4430,46.8090,-35.2210,34.0400
3.8870,-0.0600,0.0150,1.1760,-22.5340,48.1530,-41.0990,34.0800
3.8991,-0.0670,0.0180,1.1450,-26.0000,46.3050,-43.6490,34.1300
3.9057,-0.0560,0.0280,1.1090,-20.6720,40.1220,-41.6490,34.1300
3.9182,-0.0450,0.0240,1.0730,-12.1070,30.5500,-40.9310,34.0800
3.9251,-0.0470,0.0150,1.0860,-1.3590,25.4660,-42.9160,34.1300
3.9370,-0.0350,0.0000,1.1290,7.8320,19.9390,-45.2980,34.0800
3.9490,-0.0270,-0.0010,1.1700,15.4660,15.3890,-41.6340,34.1300
3.9558,-0.0490,-0.0540,1.1940,18.8550,16.0000,-34.9920,34.0400
3.9682,-0.0850,-0.0720,1.2480,15.7560,20.6560,-35.0530,34.1800
3.9750,-0.0920,-0.0810,1.2400,12.0310,26.2750,-33.0530,34.0400
3.9871,-0.1070,-0.0890,1.2400,4.1220,31.3280,-32.1980,33.9900
3.9992,-0.1340,-0.0940,1.2350,-2.4730,38.8550,-28.6870,34.0800
