Time,AX,AY,AZ,GX,GY,GZ,T
0.0000,-0.0370,-0.0070,1.0430,-4.7180,39.0840,-58.5950,34.3200
0.0004,-0.0340,-0.0390,1.0210,1.9850,32.4890,-55.8170,34.2200
0.0007,-0.0450,-0.0400,1.0480,-0.6870,30.3510,-43.5420,34.1800
0.0010,-0.0720,-0.0540,1.1240,-10.4730,25.6490,-40.9920,34.1300
0.0014,-0.0750,-0.0340,1.1460,-22.1830,25.2520,-37.1600,34.2700
0.0017,-0.0790,-0.0310,1.1280,-32.0920,30.1530,-36.6410,34.2700
0.0020,-0.0930,-0.0320,1.1140,-37.0690,29.5270,-39.6950,34.2200
0.0023,-0.1150,-0.0940,1.1140,-27.4050,29.0690,-39.2210,34.2700
0.0027,-0.0910,-0.1180,1.1000,-17.3280,35.0840,-37.8170,34.3200
0.0030,-0.0530,-0.1080,1.1080,-23.0990,33.5110,-37.5110,34.2200
0.0034,-0.0240,-0.0710,1.1040,-40.3660,30.2140,-41.4200,34.1800
0.0038,-0.0130,-0.0600,1.0920,-54.5500,30.1830,-41.9080,34.2200
0.0045,0.0020,-0.0790,1.0990,-55.1300,24.5800,-41.2820,34.2200
0.0049,0.0050,-0.1230,1.0780,-42.0460,18.3970,-40.6260,34.1800
0.0053,0.0150,-0.1440,1.1020,-16.8090,10.8850,-36.9160,34.3200
0.0059,0.0270,-0.1360,1.1680,3.3740,7.3890,-31.2060,34.2200
0.0063,0.0340,-0.1090,1.1970,1.1600,10.2140,-23.9540,34.1800
0.0067,0.0510,-0.0910,1.1980,-5.4050,14.0000,-19.8020,34.2200
0.0071,0.0680,-0.0610,1.1990,-9.8470,19.6950,-15.6030,34.2700
0.0075,0.0800,-0.0460,1.1950,-12.5040,18.9160,-11.8780,34.1800
0.0080,0.1030,-0.0460,1.1700,-7.5730,22.3510,-7.9850,34.1300
0.0083,0.1180,-0.0370,1.1670,3.2210,20.5800,-7.4660,34.2700
0.0087,0.1120,-0.0070,1.2210,6.9920,22.1530,-1.9690,34.1800
0.0090,0.1110,-0.0170,1.2090,7.0230,25.8630,-1.1150,34.2200
0.0094,0.1050,-0.0170,1.1960,7.0990,29.2210,-1.5270,34.2700
0.0097,0.0700,-0.0090,1.1910,4.2600,29.1150,-3.0990,34.2200
0.0101,0.0540,0.0070,1.1890,1.5420,33.3130,-2.9470,34.2200
0.0105,0.0860,0.0520,1.1670,-1.8930,35.7860,-5.5110,34.1800
0.0109,0.0930,0.0510,1.1490,-2.9620,35.1760,-11.1150,34.2200
0.0112,0.1010,0.0120,1.1100,1.8470,32.5190,-15.8780,34.1800
0.0116,0.1150,-0.0120,1.1040,9.2210,24.6560,-16.0460,34.1800
0.0119,0.1000,-0.0540,1.1080,12.4580,24.6720,-12.9010,34.3200
0.0123,0.1110,-0.0810,1.1410,1.4200,22.1980,-11.8020,34.1800
0.0130,0.1030,-0.0720,1.1870,-7.0990,22.1680,-12.6870,34.2200
0.0134,0.0910,-0.0250,1.2320,-9.5270,24.7480,-11.3130,34.2200
0.0139,0.0800,0.0010,1.2770,-2.3360,25.2210,-11.7250,34.1800
0.0144,0.0740,-0.0180,1.2830,6.2750,29.0840,-11.6490,34.2700
0.0146,0.0630,-0.0430,1.2940,8.9160,30.5800,-13.2980,34.2200
0.0149,0.0720,-0.0380,1.2960,10.5500,31.7860,-16.5190,34.2700
0.0153,0.0850,-0.0360,1.2880,13.6790,38.0460,-18.2750,34.3200
0.0156,0.0880,-0.0720,1.2550,14.2140,43.0230,-17.8020,34.2200
0.0161,0.0780,-0.0880,1.2360,7.6340,46.0920,-20.7940,34.2700
0.0165,0.0830,-0.0530,1.1980,4.1220,45.4500,-18.3210,34.2200
0.0168,0.0590,-0.0420,1.1540,3.7860,43.6790,-15.0080,34.1800
0.0173,0.0480,-0.0200,1.1590,2.7330,41.8630,-14.3820,34.1800
0.0178,0.0320,-0.0140,1.1370,4.6110,37.0530,-14.5340,34.2200
0.0184,0.0160,-0.0150,1.1130,11.1600,35.9690,-15.8020,34.2700
0.0187,0.0040,-0.0210,1.0980,18.0310,31.0530,-15.1600,34.2200
0.0195,-0.0020,-0.0020,1.0830,20.9160,24.6110,-18.3820,34.3200
0.0200,-0.0060,0.0200,1.0710,18.2900,23.8320,-22.1530,34.2700
0.0209,-0.0080,0.0300,1.0710,11.0690,17.3740,-25.6340,34.2200
0.0214,-0.0100,0.0620,1.0850,3.7100,13.1300,-28.7480,34.2200
0.0239,0.0060,0.0710,1.0630,1.4200,9.5730,-28.9770,34.2700
0.0242,0.0200,0.0420,1.0420,2.9160,5.1760,-29.0230,34.2200
0.0246,0.0200,-0.0410,1.0440,4.2900,0.0000,-31.6180,34.2700
0.0249,0.0180,-0.0680,1.1020,3.1910,1.6180,-30.5190,34.1800
0.0251,0.0300,-0.0510,1.1120,0.7790,-1.7710,-25.6790,34.3200
0.0255,0.0480,-0.0830,1.1470,6.2290,0.2750,-22.5950,34.2700
0.0259,0.0620,-0.0920,1.1550,7.5270,1.0230,-19.8780,34.2200
0.0262,0.0840,-0.0290,1.1670,-6.0460,4.6870,-20.9160,34.3200
0.0266,0.0940,0.0270,1.1890,-20.5190,5.6950,-22.2750,34.1800
0.0269,0.1130,0.0620,1.1610,-23.2060,7.2370,-24.4430,34.2200
0.0273,0.1210,0.0780,1.1620,-19.4960,5.3130,-25.2980,34.1300
0.0276,0.1470,0.0910,1.1270,-17.6180,3.3130,-29.4660,34.2700
0.0279,0.1650,0.0910,1.1260,-23.0380,2.1980,-37.4500,34.3200
0.0282,0.1620,0.0590,1.1070,-21.5110,-0.7790,-40.7790,34.2700
0.0286,0.1420,0.0090,1.1350,-9.7100,-3.0690,-41.1150,34.1800
0.0289,0.1280,-0.0460,1.1860,-2.1980,-1.9080,-40.9010,34.2200
0.0292,0.1280,-0.0480,1.2140,-8.8090,-0.3050,-40.4120,34.2700
0.0297,0.1270,-0.0370,1.2210,-12.6260,8.2290,-37.1760,34.3200
0.0301,0.1270,-0.0670,1.1810,-8.9920,10.9920,-35.4050,34.2200
0.0312,0.1200,-0.0580,1.1880,-12.5190,12.2900,-35.1300,34.1800
0.0318,0.1180,-0.0440,1.1790,-17.2060,9.8320,-35.4050,34.2200
0.0321,0.1000,-0.0620,1.2280,-20.0150,10.3970,-35.1300,34.2700
0.0324,0.1230,-0.0620,1.1890,-21.1450,14.7480,-36.3970,34.2700
0.0328,0.1040,-0.0460,1.2180,-25.2210,18.1830,-36.5500,34.1300
0.0331,0.1190,-0.0260,1.2130,-21.7860,20.3820,-37.0690,34.1800
0.0335,0.1380,-0.0180,1.2050,-17.8020,19.7560,-42.2440,34.2200
0.0344,0.1230,-0.0090,1.2090,-19.2060,18.9920,-45.4660,34.1300
0.0348,0.1150,-0.0460,1.2130,-12.4580,16.9920,-46.8850,34.2700
0.0353,0.0970,-0.0500,1.2360,-4.4270,17.2980,-48.4890,34.2200
0.0357,0.1000,-0.0670,1.2340,-1.8930,16.8700,-48.8090,34.2200
0.0360,0.0860,-0.0550,1.2450,-5.0080,19.7400,-54.4270,34.2700
0.0364,0.1110,-0.0360,1.2250,-5.2520,19.9540,-55.3890,34.3200
0.0368,0.0920,-0.0640,1.2230,-3.3280,21.1300,-53.3280,34.2700
0.0375,0.1090,-0.0850,1.2070,0.4580,18.8550,-48.5800,34.2700
0.0380,0.1010,-0.1190,1.2030,1.8930,21.6180,-48.1830,34.2200
0.0383,0.0520,-0.1180,1.2520,-14.8240,16.5500,-44.1370,34.2700
0.0390,0.0580,-0.0860,1.2540,-15.2980,28.9310,-42.2140,34.1300
0.0397,0.0600,-0.0520,1.2250,-17.3440,29.4660,-43.6790,34.2200
0.0400,0.0510,-0.0630,1.2020,-11.6490,29.5880,-43.3440,34.2700
0.0402,0.0510,-0.0740,1.1930,-0.9010,21.4810,-43.6490,34.2200
0.0405,0.0560,-0.0910,1.1740,1.2980,21.9240,-45.6490,34.2700
0.0407,0.0510,-0.0870,1.1860,-0.0920,20.5950,-44.7180,34.2700
0.0409,0.0520,-0.0900,1.1770,-3.7250,22.8400,-42.6870,34.2200
0.0411,0.0310,-0.1250,1.1970,-1.3590,21.2520,-41.9080,34.1800
0.0415,0.0320,-0.1040,1.2150,1.1600,19.8320,-40.3660,34.1300
0.0419,0.0380,-0.0750,1.2220,-4.2440,21.6340,-42.0920,34.2200
0.0423,0.0310,-0.0810,1.1880,-10.4890,23.5730,-45.0690,34.1800
0.0433,0.0420,-0.0750,1.1670,-11.2980,24.4730,-47.4200,34.2200
0.0439,0.0400,-0.0780,1.1580,-9.6490,22.3210,-46.8550,34.3700
0.0443,0.0290,-0.0880,1.1730,-4.8240,18.9770,-44.5800,34.1800
0.0446,0.0210,-0.0910,1.1730,-5.2370,17.8020,-44.0920,34.3200
0.0450,0.0320,-0.0740,1.1780,-9.5270,18.0310,-44.6720,34.1800
0.0453,0.0350,-0.0590,1.1770,-11.1600,19.0990,-47.0230,34.2700
0.0456,0.0270,-0.0840,1.1690,-7.3740,18.3360,-47.9080,34.2200
0.0458,0.0360,-0.1000,1.1770,-4.7940,17.3890,-47.6640,34.1800
0.0460,0.0310,-0.1000,1.1890,-5.0840,17.0380,-46.7180,34.2200
0.0462,0.0260,-0.1260,1.2170,-4.1220,17.3130,-44.7790,34.2200
0.0466,0.0350,-0.1340,1.2270,-5.7860,19.6340,-42.9010,34.1800
0.0477,0.0400,-0.1240,1.2100,-10.5800,23.0840,-41.8170,34.2200
0.0479,0.0550,-0.0890,1.1900,-16.0310,25.4960,-41.0380,34.1800
0.0482,0.0560,-0.0620,1.1600,-11.7100,24.6410,-38.8400,34.1800
0.0486,0.0660,-0.0820,1.1330,-2.8400,20.5950,-40.3820,34.0400
0.0490,0.0660,-0.0540,1.1600,3.2980,16.3660,-42.4730,34.1800
0.0493,0.0600,-0.0630,1.2070,5.5730,15.8020,-43.1910,34.2200
0.0497,0.0610,-0.0630,1.2060,0.2140,17.5570,-44.5500,34.2200
0.0504,0.0520,-0.0920,1.1980,-2.0310,20.0310,-44.7020,34.2700
0.0509,0.0350,-0.0980,1.1940,0.2900,22.2750,-44.3510,34.2200
0.0515,0.0380,-0.0940,1.1820,2.5500,23.7710,-44.7180,34.1300
0.0516,0.0400,-0.0890,1.1760,-1.9540,23.5880,-44.4120,34.1800
0.0520,0.0520,-0.0980,1.1610,-4.3050,22.9470,-43.8930,34.3200
0.0522,0.0350,-0.1000,1.1540,3.1600,21.7400,-42.3820,34.2700
0.0523,0.0400,-0.0980,1.1430,4.7790,20.5800,-41.3440,34.1800
0.0525,0.0430,-0.0940,1.1460,1.0840,19.6640,-42.2290,34.2200
0.0527,0.0390,-0.0810,1.1710,-0.5800,20.3050,-42.4430,34.1800
0.0529,0.0420,-0.0750,1.1670,-3.3440,21.3740,-43.0230,34.2200
0.0531,0.0430,-0.0650,1.1560,-7.0230,20.9470,-42.6110,34.3200
0.0534,0.0490,-0.0620,1.1580,0.0920,21.3130,-43.9540,34.2700
0.0536,0.0460,-0.0670,1.1840,4.3510,20.6720,-44.8240,34.2200
0.0538,0.0440,-0.0950,1.1810,-0.1220,20.5950,-45.6030,34.2700
0.0539,0.0410,-0.1030,1.1430,-4.1980,20.5190,-43.8780,34.3700
0.0541,0.0430,-0.0960,1.1410,-3.6030,20.3660,-43.3740,34.3200
0.0543,0.0540,-0.0760,1.1340,-2.4430,18.4270,-42.2140,34.2700
0.0545,0.0500,-0.0810,1.1520,-2.5800,17.4500,-42.1070,34.2200
0.0547,0.0580,-0.0840,1.1990,-3.8470,18.1370,-40.1830,34.1800
0.0549,0.0620,-0.0670,1.2050,-3.4960,19.2520,-41.1300,34.3200
0.0551,0.0550,-0.0640,1.1910,-3.5420,21.1600,-43.5570,34.3200
0.0556,0.0650,-0.0780,1.1970,-3.2670,21.3590,-45.2980,34.1800
0.0559,0.0560,-0.0840,1.2090,-3.0380,21.0080,-45.3440,34.2200
0.0561,0.0500,-0.0800,1.2080,-1.3440,21.4500,-45.5420,34.2700
0.0611,0.0530,-0.0800,1.2140,-1.2210,23.4500,-46.1680,34.0800
0.0676,0.0670,-0.0800,1.2190,-2.1680,24.9470,-44.1370,34.1300
0.0798,0.0640,-0.0940,1.1970,-1.2980,26.1680,-44.1070,34.2700
0.0920,0.0680,-0.0890,1.1800,0.7940,26.5800,-44.1220,34.2200
0.0988,0.0770,-0.0770,1.1730,2.7180,25.4960,-43.5880,34.2200
0.1112,0.0600,-0.0950,1.1650,6.3970,22.9920,-42.7790,34.2700
0.1181,0.0400,-0.0950,1.1840,5.9390,22.3050,-43.0530,34.2200
0.1305,0.0500,-0.0700,1.1950,1.6790,23.9690,-42.7630,34.2700
0.1428,0.0460,-0.0550,1.1880,-2.6560,26.2600,-43.9390,34.1800
0.1494,0.0430,-0.0600,1.1790,-4.9470,27.3740,-47.3280,34.3200
0.1617,0.0400,-0.0620,1.1660,-2.9010,27.5110,-49.8630,34.3700
0.1685,0.0310,-0.0650,1.1500,-3.0380,25.7250,-50.5340,34.1300
0.1806,0.0390,-0.0830,1.1440,-0.8700,23.0230,-49.0380,34.2200
0.1926,0.0310,-0.1090,1.1550,4.5190,20.9770,-47.0840,34.1800
0.1997,0.0420,-0.1050,1.1680,6.8090,20.2900,-42.1220,34.1300
0.2121,0.0420,-0.1060,1.1690,6.0000,20.5040,-40.4270,34.2200
0.2189,0.0470,-0.1100,1.1570,5.1150,20.8550,-39.6950,34.2700
0.2314,0.0510,-0.0890,1.1730,3.7710,20.2900,-39.3130,34.2200
0.2380,0.0530,-0.0600,1.1960,1.3130,20.1370,-40.6260,34.1800
0.2502,0.0640,-0.0470,1.2000,3.7400,20.0610,-40.5340,34.3700
0.2626,0.0580,-0.0410,1.2090,2.0150,20.5950,-42.1980,34.2200
0.2696,0.0650,-0.0310,1.2040,3.2670,19.3740,-43.8020,34.2700
0.2818,0.0450,-0.0310,1.1940,7.1150,22.7790,-45.2670,34.3200
0.2888,0.0480,-0.0640,1.1680,9.7100,23.6180,-47.6180,34.2200
0.3010,0.0470,-0.0880,1.1810,7.7250,21.2520,-49.2520,34.2200
0.3078,0.0440,-0.0670,1.1940,-0.6560,22.4580,-49.6340,34.2200
0.3201,0.0510,-0.0760,1.1870,1.6640,22.2600,-46.5500,34.2700
0.3324,0.0390,-0.0850,1.1810,9.0380,22.4890,-46.4270,34.1800
0.3399,0.0380,-0.0790,1.1880,9.9080,20.9770,-43.7560,34.2200
0.3518,0.0350,-0.0790,1.1650,9.0230,20.5800,-42.3970,34.2700
0.3583,0.0380,-0.0750,1.1660,8.3660,20.0610,-40.5340,34.2200
0.3708,0.0310,-0.0490,1.1760,4.3510,20.6110,-42.2900,34.2200
0.3828,0.0380,-0.0210,1.1840,1.9540,21.0840,-44.9310,34.2700
0.3898,0.0630,0.0160,1.1910,-1.0230,21.4660,-48.6110,34.3200
0.4021,0.0510,0.0110,1.1890,2.9010,20.6410,-49.1760,34.1800
0.4092,0.0510,-0.0250,1.1770,13.6340,20.5340,-46.9770,34.2700
0.4216,0.0420,-0.0600,1.1770,14.2440,20.8550,-47.5110,34.3200
0.4283,0.0360,-0.0680,1.1820,7.8170,17.6950,-48.1220,34.1800
0.4404,0.0360,-0.0630,1.1520,6.7020,19.2210,-45.8320,34.1800
0.4527,0.0390,-0.0570,1.1690,7.1300,18.2290,-45.1910,34.2200
0.4597,0.0340,-0.0550,1.1920,3.0840,17.9540,-46.0610,34.2700
0.4721,0.0220,-0.0380,1.1990,0.7020,16.7790,-46.5190,34.1300
0.4790,0.0400,-0.0120,1.1990,-1.9240,17.6490,-41.8630,34.2200
0.4908,0.0220,0.0040,1.2000,-2.2440,17.8780,-46.2440,34.2700
0.4979,0.0250,0.0130,1.1960,0.3360,16.7940,-46.6260,34.2200
0.5102,0.0240,-0.0170,1.1800,4.9920,15.2820,-48.0460,34.2700
0.5224,0.0240,-0.0430,1.2010,8.7020,13.8930,-49.6180,34.2700
0.5294,0.0260,-0.0650,1.2060,8.4890,14.4580,-48.6870,34.3200
0.5415,0.0290,-0.0970,1.2020,9.1450,16.4730,-47.2980,34.2700
0.5483,0.0200,-0.1120,1.2070,5.4810,19.8170,-46.5190,34.2200
0.5609,0.0280,-0.0820,1.1790,0.5040,22.2290,-44.9160,34.1300
0.5728,0.0380,-0.0570,1.1590,0.9160,22.5190,-41.7860,34.2700
0.5801,0.0480,-0.0370,1.1250,2.6110,21.2370,-39.7250,34.1300
0.5921,0.0680,-0.0040,1.1250,3.4350,18.2600,-39.8630,34.3200
0.5991,0.0880,0.0410,1.1270,2.4730,16.8850,-42.7020,34.2700
0.6116,0.0910,0.0470,1.1350,1.0990,16.7180,-45.7860,34.1300
0.6184,0.0750,0.0320,1.1620,6.3210,17.4810,-47.2520,34.2700
0.6307,0.0730,0.0220,1.1710,8.9010,20.0000,-47.4350,34.1800
0.6368,0.0570,0.0080,1.1840,2.8700,20.5650,-48.1220,34.3200
0.6503,0.0490,-0.0030,1.1850,0.9920,23.0230,-49.3440,34.1800
0.6624,0.0440,-0.0270,1.1780,2.2290,23.7250,-48.2140,34.1800
0.6694,0.0310,-0.0500,1.1520,-1.4810,23.4350,-48.2600,34.2200
0.6815,0.0330,-0.0660,1.1410,-6.8850,22.8240,-47.8020,34.1800
0.6884,0.0300,-0.0430,1.1420,-9.1760,21.7560,-48.7790,34.2200
0.7005,0.0330,-0.0250,1.1620,-5.9240,20.0610,-46.7940,34.2200
0.7128,0.0330,-0.0350,1.1580,-3.4960,20.0760,-47.9850,34.1800
0.7195,0.0280,-0.0450,1.1640,-3.0080,19.5730,-50.1680,34.2200
0.7316,0.0310,-0.0470,1.1770,-2.8700,20.3820,-51.0230,34.1800
0.7383,0.0280,-0.0490,1.1590,-5.7100,21.3440,-50.3820,34.2200
0.7506,0.0410,-0.0170,1.1730,-9.2820,19.1760,-50.8700,34.2200
0.7626,0.0480,0.0040,1.1800,-8.4270,20.1530,-51.3590,34.2700
0.7698,0.0560,0.0160,1.1810,-5.4500,19.5420,-50.7020,34.2700
0.7818,0.0500,-0.0180,1.1550,1.6790,17.8320,-49.2210,34.2200
0.7893,0.0530,-0.0350,1.1500,3.6340,17.6950,-48.6410,34.1800
0.8012,0.0560,-0.0210,1.1670,-2.6560,17.8470,-47.1910,34.2200
0.8082,0.0540,-0.0250,1.1560,-4.5650,19.0690,-46.6720,34.2200
0.8203,0.0590,-0.0060,1.1790,-6.0610,21.0380,-47.5570,34.2700
0.8321,0.0640,0.0000,1.1770,-8.7180,22.0000,-48.6410,34.2200
0.8391,0.0710,0.0110,1.1910,-9.8780,22.6260,-50.4430,34.2700
0.8515,0.0780,0.0000,1.1730,-7.2210,23.0990,-51.2060,34.2700
0.8583,0.0740,-0.0150,1.1660,-6.0920,21.6030,-51.2210,34.2200
0.8706,0.0610,-0.0250,1.1620,-7.0380,20.2900,-51.8320,34.1800
0.8825,0.0520,-0.0100,1.1850,-6.5650,19.1760,-52.0000,34.2200
0.8893,0.0560,-0.0080,1.2060,-7.1300,20.3970,-51.7560,34.2200
0.9018,0.0590,-0.0080,1.2060,-6.5040,21.2370,-52.3820,34.2700
0.9083,0.0580,-0.0210,1.1850,-7.8470,22.2440,-52.6870,34.2200
0.9206,0.0540,-0.0540,1.1730,-3.7860,19.9390,-52.5040,34.1800
0.9328,0.0520,-0.0620,1.1900,0.3210,18.4430,-52.9770,34.2200
0.9396,0.0460,-0.0760,1.2080,-1.8780,17.8780,-52.0920,34.2200
0.9520,0.0430,-0.0840,1.1990,0.7330,17.8020,-48.5190,34.2700
0.9592,0.0330,-0.0820,1.2110,6.3360,19.3280,-47.8320,34.2200
0.9712,0.0460,-0.0590,1.2230,1.7250,20.3660,-45.9850,34.2200
0.9781,0.0510,-0.0470,1.1980,-3.3590,22.3820,-45.3740,34.2700
0.9901,0.0590,-0.0170,1.1880,-4.2900,22.5190,-47.8780,34.2200
1.0025,0.0770,-0.0200,1.1840,0.2290,22.4120,-48.9470,34.2700
1.0092,0.0690,-0.0310,1.1560,3.5270,20.3210,-48.8700,34.1800
1.0214,0.0550,-0.0210,1.1690,2.2140,18.7480,-50.8400,34.2200
1.0287,0.0460,-0.0160,1.1880,-0.8240,19.2980,-49.7710,34.1800
1.0407,0.0400,-0.0000,1.2100,-5.6640,21.9390,-49.3740,34.1800
1.0526,0.0490,-0.0000,1.2020,-6.6110,24.2900,-46.3970,34.2200
1.0597,0.0540,-0.0030,1.2200,-4.7630,24.3970,-44.1530,34.1800
1.0715,0.0540,-0.0050,1.2030,-4.0310,24.3050,-44.0920,34.1300
1.0789,0.0540,-0.0010,1.1730,-2.4580,22.5500,-44.0760,34.2200
1.0907,0.0470,-0.0230,1.1630,-2.2140,21.6790,-46.7330,34.1800
1.1030,0.0470,-0.0380,1.1350,-5.3440,19.0530,-47.4660,34.2200
1.1097,0.0470,-0.0530,1.1160,-2.3970,16.6110,-45.4200,34.2700
1.1220,0.0560,-0.0580,1.1220,0.5500,15.1760,-46.9920,34.2200
1.1290,0.0540,-0.0700,1.1400,-4.3660,15.6950,-48.5800,34.2200
1.1408,0.0360,-0.0750,1.1620,-6.5950,16.7790,-48.4430,34.2700
1.1478,0.0240,-0.0630,1.1680,-7.3130,20.4270,-48.0000,34.2200
1.1600,0.0340,-0.0380,1.1610,-12.2290,22.6410,-49.1300,34.3200
1.1722,0.0290,-0.0270,1.1360,-17.2520,21.5110,-52.6560,34.2700
1.1791,0.0280,-0.0160,1.1350,-12.5040,17.4960,-55.3740,34.2200
1.1909,0.0230,-0.0210,1.1470,-4.8400,14.4270,-55.2980,34.1300
1.1966,0.0260,-0.0410,1.1710,-4.7790,12.6410,-55.3130,34.1800
1.2098,0.0270,-0.0590,1.1760,-5.0080,12.2140,-53.8630,34.2200
1.2224,0.0270,-0.0650,1.2010,-3.1300,13.5880,-51.2370,34.2700
1.2289,0.0380,-0.0610,1.2030,-2.8400,15.9240,-49.4200,34.1800
1.2411,0.0360,-0.0740,1.1980,0.0760,15.2060,-47.8320,34.2200
1.2479,0.0420,-0.0670,1.1940,1.8930,13.4500,-46.2290,34.2700
1.2603,0.0360,-0.0950,1.1930,5.0380,12.3970,-44.4120,34.3200
1.2732,0.0410,-0.0880,1.1910,5.4960,17.4660,-46.0460,34.3200
1.2794,0.0430,-0.0990,1.1860,-5.2520,18.2750,-47.3890,34.2700
1.2917,0.0450,-0.1020,1.1680,-7.0230,21.0840,-48.1370,34.3200
1.2984,0.0430,-0.0740,1.1910,-6.5800,19.4050,-46.4890,34.2700
1.3107,0.0630,-0.0500,1.1840,-1.1910,21.5420,-45.3740,34.2200
1.3225,0.0840,-0.0170,1.1850,-4.1680,23.7250,-45.2210,34.2200
1.3296,0.0910,-0.0210,1.1520,-1.3590,24.1680,-45.6490,34.2700
1.3423,0.0910,-0.0240,1.1550,-0.5340,24.1370,-47.5570,34.2700
1.3485,0.0980,0.0030,1.1410,-3.4350,24.1830,-48.1680,34.2200
1.3607,0.0940,0.0270,1.1450,-6.0920,24.9010,-50.0150,34.1800
1.3664,0.0900,0.0210,1.1410,-10.1530,25.5880,-53.6640,34.2200
1.3798,0.0730,-0.0140,1.1450,-6.4120,22.9160,-55.6640,34.2200
1.3922,0.0600,-0.0240,1.1630,-1.8470,22.9770,-57.0080,34.3700
1.3989,0.0640,-0.0650,1.1680,-5.4500,22.6560,-56.9470,34.1300
1.4109,0.0340,-0.1180,1.1670,-6.0460,24.5190,-55.1910,34.2700
1.4176,0.0350,-0.1100,1.1790,-5.4350,23.3740,-52.6260,34.1800
1.4299,0.0320,-0.0890,1.1960,-8.2290,25.6640,-51.1910,34.2200
1.4421,0.0490,-0.0650,1.2090,-8.2600,26.4730,-50.5340,34.2700
1.4488,0.0600,-0.0400,1.2150,-6.0000,26.9010,-49.3890,34.3200
1.4611,0.0660,-0.0420,1.2050,-0.8400,27.6640,-48.0460,34.2200
1.4680,0.0630,-0.0330,1.1990,2.6870,26.5800,-49.3130,34.1800
1.4801,0.0570,-0.0140,1.1940,3.1760,26.6560,-50.1830,34.3200
1.4926,0.0510,-0.0200,1.1750,3.2820,27.0530,-50.9310,34.2700
1.4992,0.0400,0.0040,1.1780,-1.7710,28.0460,-53.0690,34.2200
1.5117,0.0330,-0.0030,1.1880,-4.7940,28.2140,-52.0150,34.2200
1.5186,0.0150,-0.0270,1.1840,1.1300,27.0080,-51.8780,34.1800
1.5308,0.0090,-0.0410,1.1930,2.7330,25.6030,-55.0530,34.2700
1.5366,0.0100,-0.0700,1.1660,1.2820,24.9470,-56.1220,34.2200
1.5498,0.0030,-0.0810,1.1480,-1.3280,23.9540,-56.1530,34.1800
1.5619,0.0060,-0.0770,1.1440,-7.4350,22.6870,-55.5570,34.2200
1.5689,0.0180,-0.0770,1.1690,-5.6340,20.7940,-50.4430,34.3200
1.5812,0.0120,-0.0810,1.1830,-2.2140,20.4270,-47.6180,34.2700
1.5879,0.0310,-0.0810,1.1720,-9.0690,19.4660,-44.7940,34.2200
1.6003,0.0110,-0.0470,1.1950,-14.1220,21.1600,-42.3210,34.1800
1.6123,0.0320,-0.0210,1.2020,-19.7250,21.4500,-42.7480,34.1800
1.6190,0.0550,0.0240,1.2140,-25.1600,22.4270,-46.0610,34.1300
1.6311,0.0550,0.0340,1.2570,-17.9080,20.7020,-44.9470,34.2700
1.6381,0.0440,0.0070,1.2740,-2.2140,21.4960,-46.0920,34.2200
1.6501,0.0600,-0.0360,1.2560,6.5650,20.9010,-45.4050,34.2200
1.6626,0.0280,-0.0880,1.2620,8.4120,25.6030,-48.8550,34.1800
1.6697,0.0130,-0.1210,1.2360,5.4350,24.0460,-49.7100,34.2200
1.6815,0.0040,-0.1500,1.2010,3.9240,26.0610,-50.7940,34.2200
1.6886,0.0040,-0.1470,1.1530,-2.2140,25.6640,-49.4660,34.2200
1.7008,-0.0070,-0.1400,1.1730,-6.7630,24.0610,-46.5040,34.3200
1.7130,0.0100,-0.1150,1.1980,-5.1300,20.5340,-44.6110,34.2700
1.7194,0.0140,-0.0530,1.1640,-0.9920,20.1680,-41.4810,34.1800
1.7320,0.0080,-0.0310,1.1740,-1.6340,18.1370,-41.0840,34.3200
1.7388,0.0210,-0.0160,1.1600,-2.1680,14.0000,-40.4430,34.1800
1.7511,0.0210,-0.0350,1.1210,5.5880,15.4200,-39.8170,34.3200
1.7565,0.0120,-0.0470,1.1420,8.7480,8.6870,-38.5190,34.2200
1.7704,0.0250,-0.0330,1.1230,7.3740,8.5950,-39.5270,34.3700
1.7824,0.0340,-0.0260,1.1360,6.9470,5.1600,-40.4430,34.2200
1.7895,0.0480,-0.0030,1.1620,-1.6490,7.3440,-41.2210,34.1800
1.8018,0.0610,-0.0260,1.1620,0.9920,7.8930,-43.0690,34.1800
1.8088,0.0620,-0.0460,1.1600,4.8090,5.8780,-44.2900,34.2200
1.8210,0.0560,-0.0430,1.1950,3.4350,7.6340,-44.7480,34.2700
1.8282,0.0710,-0.0390,1.1860,2.9920,10.3970,-45.6790,34.1800
1.8401,0.0670,-0.0350,1.2230,-5.1300,8.6410,-47.5270,34.2200
1.8526,0.0750,-0.0370,1.1980,-1.0230,14.9620,-47.7860,34.1800
1.8597,0.0640,-0.0530,1.2170,3.0230,14.0610,-48.0310,34.2200
1.8719,0.0830,-0.0470,1.2050,6.4430,16.9920,-43.8630,34.2200
1.8787,0.0940,-0.0650,1.1750,7.5880,16.6560,-40.3970,34.2700
1.8905,0.0900,-0.0540,1.1640,14.8850,14.7020,-38.8700,34.2200
1.9029,0.1000,-0.0640,1.1480,14.0310,15.9240,-39.3130,34.2700
1.9096,0.0960,-0.0440,1.1620,5.6950,16.3050,-41.6030,34.2700
1.9220,0.0980,-0.0110,1.1820,-0.3970,18.4120,-44.6110,34.2200
1.9292,0.1070,0.0080,1.1790,-3.6180,20.5800,-47.9390,34.2700
1.9411,0.0990,0.0320,1.1990,-7.4810,20.9010,-53.4350,34.2200
1.9478,0.0920,0.0250,1.1810,-10.1980,23.3280,-57.4660,34.2200
1.9603,0.0830,-0.0010,1.2160,0.5340,22.1070,-54.6720,34.1800
1.9724,0.0830,-0.0200,1.1850,8.0460,19.8930,-53.8630,34.2200
1.9796,0.0830,-0.0140,1.2060,9.6030,21.6790,-52.5190,34.3200
1.9917,0.0690,-0.0490,1.1830,6.9920,20.2140,-53.7560,34.1800
1.9984,0.0540,-0.0700,1.1880,6.4120,19.8630,-55.4660,34.2200
2.0105,0.0540,-0.0630,1.2040,4.3360,20.1370,-54.2600,34.2200
2.0228,0.0560,-0.0770,1.1900,-1.0840,22.5950,-57.0840,34.2700
2.0299,0.0450,-0.0890,1.1500,-1.4500,21.4660,-55.1600,34.2200
2.0418,0.0550,-0.0730,1.1430,1.2370,19.2670,-51.7860,34.2700
2.0488,0.0490,-0.0560,1.1560,5.2060,19.0530,-49.2060,34.1800
2.0610,0.0270,-0.0520,1.1890,5.9080,13.8320,-48.7330,34.2200
2.0680,0.0430,-0.0460,1.1570,4.4120,19.0990,-47.5420,34.1800
2.0805,0.0570,-0.0260,1.1640,8.3210,17.7400,-47.4350,34.2700
2.0927,0.0740,-0.0140,1.1630,5.8020,18.4270,-49.5420,34.3200
2.0997,0.0890,-0.0060,1.1750,-2.8400,19.8170,-51.6180,34.1800
2.1118,0.0870,-0.0060,1.1670,-6.3360,16.6720,-53.6950,34.3200
2.1185,0.0790,0.0090,1.1730,-0.0310,18.2440,-52.9470,34.1300
2.1306,0.0680,-0.0060,1.1660,0.4270,15.7710,-55.9540,34.2200
2.1429,0.0670,-0.0100,1.1600,-1.7400,15.8780,-58.1220,34.2200
2.1499,0.0660,-0.0340,1.1600,-5.9850,17.2060,-58.2290,34.1800
2.1619,0.0730,-0.0180,1.1760,-4.2140,17.0530,-58.0310,34.2700
2.1692,0.0830,-0.0210,1.1720,-8.3970,14.9770,-58.6410,34.2200
2.1808,0.0790,-0.0380,1.1860,-6.7790,18.8850,-56.6870,34.1800
2.1879,0.0530,-0.0520,1.1560,-9.1910,19.9240,-57.0230,34.2200
2.1999,0.0630,-0.0550,1.1250,-5.3740,18.3050,-53.2520,34.3200
2.2123,0.0590,-0.0540,1.1000,-2.9770,15.1450,-51.3130,34.2700
2.2191,0.0500,-0.0290,1.1200,-8.3820,14.6260,-50.4730,34.2200
2.2311,0.0660,-0.0080,1.1430,-12.5950,14.4890,-52.7940,34.2200
2.2381,0.0820,0.0300,1.1600,-18.3510,13.8780,-55.8020,34.2700
2.2502,0.0750,0.0290,1.1830,-21.3130,16.3820,-60.1830,34.2200
2.2621,0.0870,0.0370,1.1870,-15.2820,17.5420,-61.5730,34.3200
2.2694,0.0770,0.0010,1.1860,-8.1830,18.2750,-59.4500,34.2700
2.2822,0.0850,-0.0580,1.1750,1.6490,12.6110,-55.9690,34.2200
2.2883,0.0490,-0.0920,1.2550,11.3130,13.9690,-53.3590,34.1800
2.3001,0.0830,-0.0980,1.2370,18.5800,20.9770,-51.0530,34.2700
2.3124,0.0540,-0.1410,1.2330,3.4050,18.2900,-51.4350,34.2200
2.3192,0.0730,-0.1130,1.2310,-5.0840,23.4810,-53.9390,34.1800
2.3315,0.0620,-0.0820,1.2070,-9.4350,26.4270,-51.8020,34.1800
2.3381,0.0700,-0.0620,1.1480,-3.7860,29.0990,-49.1760,34.2200
2.3504,0.0660,-0.0250,1.1640,-1.2820,26.6410,-47.7860,34.2700
2.3627,0.0710,0.0020,1.2070,-3.4200,25.3590,-48.1830,34.1300
2.3695,0.0580,0.0100,1.1500,-5.8020,27.9080,-50.7940,34.2200
2.3817,0.0810,0.0370,1.1270,-2.8850,28.0760,-53.4050,34.2700
2.3887,0.0860,0.0160,1.1380,-1.7100,23.0380,-52.8400,34.2200
2.4010,0.0940,-0.0040,1.1040,2.4270,24.1680,-53.1450,34.2200
2.4080,0.0780,-0.0110,1.1670,6.6560,22.0920,-52.4580,34.2700
2.4203,0.0820,-0.0350,1.1680,5.6490,22.7630,-52.5800,34.2200
2.4326,0.0740,-0.0530,1.1910,1.9240,24.0920,-52.5190,34.1800
2.4391,0.0750,-0.0480,1.1880,-1.8930,24.2600,-50.9160,34.2200
2.4515,0.0810,-0.0370,1.2140,-10.1220,25.3440,-51.7560,34.2200
2.4582,0.0810,-0.0370,1.1980,-10.7480,26.4120,-49.4350,34.2700
2.4702,0.0730,0.0050,1.2210,-9.8320,27.4050,-48.0920,34.3200
2.4825,0.0800,-0.0030,1.2290,-5.4500,31.2210,-47.4810,34.2200
2.4895,0.0800,-0.0030,1.1940,-11.3590,21.2820,-48.7790,34.1800
2.5017,0.0520,-0.0060,1.1970,-10.0460,36.8700,-53.0840,34.2200
2.5084,0.0630,0.0120,1.1910,-19.7860,26.8700,-57.2370,34.2200
2.5204,0.0640,0.0040,1.2020,-20.0000,30.3210,-58.6110,34.2700
2.5324,0.0670,-0.0080,1.1760,-11.1760,28.4270,-56.3360,34.3200
2.5393,0.0530,-0.0340,1.1890,-3.0690,25.2820,-56.1530,34.2700
2.5515,0.0470,-0.0630,1.2010,-2.2140,22.4120,-55.4350,34.1800
2.5582,0.0210,-0.0830,1.2000,0.6560,22.5040,-47.9540,34.1300
2.5706,0.0180,-0.0910,1.2020,-4.5800,22.7940,-48.7940,34.1800
2.5827,0.0260,-0.0640,1.2050,-10.3360,22.7630,-42.0460,34.1800
2.5898,0.0330,-0.0620,1.2100,-12.9920,25.6340,-46.2750,34.2200
2.6017,0.0380,-0.0500,1.1730,-7.0840,22.2290,-45.1150,34.1800
2.6089,0.0450,-0.0640,1.1680,-6.0610,20.6260,-49.9850,34.1300
2.6207,0.0320,-0.0330,1.1730,-8.1070,19.5880,-47.6490,34.2200
2.6328,0.0460,-0.0480,1.1510,-5.4660,17.3440,-47.9690,34.2700
2.6397,0.0380,-0.0630,1.1620,-1.8320,12.9160,-47.3740,34.2200
2.6519,0.0320,-0.0600,1.1690,-7.4050,15.0230,-49.8780,34.2700
2.6586,0.0340,-0.0520,1.1700,-4.5800,12.8850,-48.9310,34.2700
2.6710,0.0280,-0.0640,1.1570,-1.1910,9.5110,-46.3660,34.2200
2.6782,0.0320,-0.0770,1.1560,0.4120,12.3210,-45.4810,34.1800
2.6902,0.0350,-0.0610,1.1440,-2.5800,10.5800,-44.3210,34.2200
2.7022,0.0480,-0.0660,1.1250,1.6180,6.6110,-44.8850,34.2200
2.7091,0.0700,-0.0540,1.1330,2.9620,7.0380,-45.0080,34.2700
2.7216,0.0580,-0.0750,1.1600,2.1530,6.6260,-41.7100,34.2200
2.7287,0.0570,-0.0880,1.1760,2.3210,9.1450,-41.4660,34.2200
2.7408,0.0710,-0.0780,1.1820,0.3510,7.0080,-40.4730,34.1800
2.7478,0.0800,-0.0750,1.1910,-5.0690,10.6870,-40.1680,34.2200
2.7603,0.0850,-0.0670,1.1880,-7.3440,11.7250,-37.4500,34.1800
2.7722,0.0930,-0.0500,1.2140,-7.5110,16.4580,-36.5500,34.2700
2.7794,0.1160,-0.0280,1.2200,-6.4120,11.5730,-31.7400,34.2200
2.7911,0.1000,0.0100,1.1950,-0.6260,22.5040,-35.0230,34.2700
2.7980,0.1070,0.0220,1.1780,-8.9470,20.8400,-40.9010,34.2700
2.8104,0.0980,0.0210,1.1880,-9.7860,21.4810,-47.2670,34.2200
2.8226,0.0730,0.0040,1.1470,-7.4500,22.7790,-47.9850,34.1800
2.8296,0.0670,-0.0260,1.1490,6.6110,17.2060,-47.9690,34.1300
2.8419,0.0320,-0.0940,1.1620,11.8780,14.7180,-48.1220,34.2200
2.8487,0.0140,-0.1320,1.1800,10.9010,14.8090,-44.9620,34.2700
2.8610,0.0040,-0.1650,1.1880,9.2820,16.0150,-39.7100,34.2200
2.8664,0.0050,-0.1570,1.1990,4.3050,17.4500,-39.2370,34.1800
2.8798,0.0310,-0.1360,1.2090,-6.3360,19.7710,-39.2670,34.2200
2.8921,0.0540,-0.0950,1.2090,-5.4200,22.8400,-37.0690,34.2200
2.8991,0.0630,-0.0590,1.2060,-5.1300,23.9390,-36.0310,34.1800
2.9112,0.0710,-0.0030,1.1910,-5.2820,26.5950,-35.8930,34.1800
2.9179,0.0780,-0.0110,1.1520,-2.8700,24.8240,-34.3970,34.2200
2.9304,0.0600,-0.0360,1.1080,7.4200,23.3130,-33.1760,34.2700
2.9423,0.0530,-0.0400,1.1300,4.3820,19.1150,-34.5190,34.1300
2.9493,0.0830,-0.0240,1.1140,2.7180,19.9850,-37.6640,34.1300
2.9617,0.0930,-0.0280,1.1020,-3.3440,19.1760,-40.3210,34.1800
2.9685,0.0910,-0.0200,1.1320,-11.2820,21.4660,-43.9540,34.1300
2.9804,0.0920,-0.0020,1.1480,-11.2210,18.0310,-42.9620,34.1800
2.9927,0.1010,-0.0010,1.1690,-9.9390,21.0530,-41.9240,34.1800
2.9994,0.1010,-0.0210,1.1550,-2.8240,20.1070,-38.9310,34.2200
3.0117,0.0920,-0.0550,1.1470,5.3740,18.5800,-38.2440,34.1800
3.0186,0.1130,-0.0400,1.1720,1.2370,20.4890,-39.6030,34.1800
3.0308,0.1060,-0.0310,1.1880,-5.0230,21.3740,-38.0310,34.2200
3.0428,0.1160,-0.0300,1.1770,-12.3210,24.4890,-38.9770,34.1800
3.0496,0.1030,-0.0330,1.1700,-9.2670,25.4660,-37.0530,34.2200
3.0619,0.0980,-0.0230,1.1810,0.2140,23.0840,-32.5650,34.2200
3.0686,0.0760,-0.0380,1.1620,3.4050,23.0380,-32.7180,34.1800
3.0807,0.0770,-0.0370,1.1570,0.7330,23.7560,-34.2140,34.2200
3.0881,0.0740,-0.0730,1.1340,3.0380,20.2900,-33.5270,34.1300
3.1003,0.0580,-0.0730,1.1560,2.2440,19.6490,-36.0460,34.1800
3.1124,0.0620,-0.0580,1.1930,-3.1450,21.2370,-37.6340,34.1300
3.1193,0.0540,-0.0650,1.2420,-2.5340,22.6560,-41.3740,34.1800
3.1317,0.0560,-0.0620,1.2470,-6.8240,26.6260,-45.3890,34.2200
3.1384,0.0580,-0.0710,1.2500,-6.8240,27.2210,-41.9690,34.2200
3.1505,0.0560,-0.0840,1.2540,-6.6560,29.1760,-41.3740,34.1800
3.1624,0.0480,-0.0840,1.2120,-8.2290,31.3130,-40.1370,34.1800
3.1697,0.0320,-0.0930,1.2010,-8.2750,30.3210,-39.8320,34.2200
3.1815,0.0560,-0.0940,1.1740,-10.0760,31.2210,-41.7560,34.2700
3.1882,0.0490,-0.0730,1.1880,-11.1910,29.9080,-44.5800,34.1300
3.2003,0.0270,-0.0930,1.1710,-12.1830,27.1600,-44.3970,34.2200
3.2125,0.0290,-0.0810,1.1930,-12.0000,26.9010,-47.0380,34.1800
3.2191,0.0300,-0.0860,1.2060,-13.4350,27.5270,-49.7100,34.2200
3.2314,0.0310,-0.0750,1.1870,-12.5800,25.5570,-48.7020,34.1800
3.2383,0.0440,-0.0600,1.1780,-7.8170,22.5950,-47.2670,34.2700
3.2501,0.0260,-0.0730,1.1710,-3.8630,21.8780,-46.7790,34.2200
3.2624,0.0110,-0.0830,1.1680,0.0920,20.0760,-48.2600,34.2700
3.2692,0.0210,-0.0750,1.1730,3.7100,18.9920,-50.0760,34.1800
3.2815,0.0180,-0.0670,1.1900,5.4660,16.2750,-48.4890,34.1300
3.2883,0.0070,-0.0830,1.1930,4.1370,16.3510,-47.0840,34.1800
3.3008,-0.0120,-0.0950,1.1860,0.7630,15.5570,-47.1910,34.2200
3.3128,-0.0170,-0.1150,1.1860,3.4960,15.3590,-49.1910,34.2200
3.3194,-0.0220,-0.1240,1.1810,4.9010,17.0530,-49.5570,34.2700
3.3318,-0.0300,-0.1340,1.1620,0.6870,16.0150,-49.8470,34.2200
3.3386,-0.0340,-0.1300,1.1590,-0.3210,15.7710,-48.9920,34.2200
3.3507,-0.0210,-0.1340,1.1750,2.3660,13.9850,-47.6180,34.2700
3.3628,-0.0060,-0.1270,1.1860,1.4960,15.0380,-47.6640,34.2200
3.3702,0.0090,-0.1000,1.2100,-7.1600,18.0460,-49.8930,34.2700
3.3818,0.0130,-0.0900,1.1820,-9.7710,20.2750,-48.0460,34.1300
3.3890,0.0050,-0.0940,1.1590,-2.7020,18.7180,-46.3360,34.2200
3.4010,0.0060,-0.0720,1.1620,2.3210,19.5730,-44.4270,34.1800
3.4078,0.0220,-0.0630,1.1470,5.8930,20.6410,-42.5190,34.2200
3.4202,0.0290,-0.0650,1.1600,11.8170,19.8320,-46.1680,34.2200
3.4324,0.0320,-0.0570,1.1840,16.5340,19.7400,-49.0530,34.1800
3.4391,0.0440,-0.0620,1.2000,15.9540,19.2820,-53.0690,34.1300
3.4517,0.0180,-0.0750,1.2280,17.4960,19.8780,-59.2210,34.2200
3.4584,0.0270,-0.0710,1.2460,26.0310,20.0610,-61.4810,34.1800
3.4705,0.0110,-0.0750,1.2360,26.8090,20.0760,-64.0310,34.2200
3.4823,0.0180,-0.1040,1.2140,18.0920,24.1370,-62.0760,34.1800
3.4894,0.0050,-0.1430,1.1720,14.5340,21.1300,-55.9850,34.2700
3.5015,0.0080,-0.1500,1.1750,13.7860,19.5570,-49.5730,34.3200
3.5082,-0.0000,-0.1380,1.1810,7.2210,19.4660,-43.6950,34.1800
3.5205,0.0180,-0.0960,1.2200,-2.7630,19.2670,-43.1910,34.1800
3.5326,0.0410,-0.0440,1.2330,-7.2060,19.8470,-42.9620,34.2200
3.5393,0.0370,-0.0320,1.2150,-4.5040,20.4580,-44.8400,34.1800
3.5517,0.0550,0.0110,1.2240,-4.7180,23.0690,-47.1760,34.2200
3.5587,0.0510,-0.0090,1.1860,-1.4660,23.3590,-45.3890,34.2200
3.5708,0.0310,-0.0440,1.1780,4.3360,22.1530,-46.4890,34.1800
3.5828,0.0360,-0.0460,1.2060,10.3360,21.2820,-47.4350,34.1300
3.5897,0.0340,-0.0560,1.2160,13.9540,20.9160,-47.4660,34.2200
3.6019,0.0400,-0.0560,1.2330,8.4120,23.6490,-50.6870,34.1800
3.6088,0.0330,-0.0280,1.2410,-0.3820,26.4730,-56.1830,34.1300
3.6212,0.0400,0.0200,1.2230,4.6410,27.7250,-59.0380,34.1800
3.6283,0.0390,0.0200,1.1950,16.5650,27.8470,-58.7630,34.2200
3.6403,0.0000,-0.0160,1.2120,27.2520,27.7560,-59.9080,34.2200
3.6525,-0.0040,-0.0320,1.2130,31.7250,27.8630,-59.7560,34.2700
3.6593,-0.0280,-0.0470,1.2110,29.7710,29.6790,-54.7480,34.1800
3.6715,-0.0220,-0.0500,1.1940,27.2210,31.0380,-53.2670,34.2200
3.6784,-0.0140,-0.0010,1.1800,24.1370,29.8320,-41.4200,34.1800
3.6901,-0.0040,-0.0130,1.1250,19.9850,30.0310,-43.9850,34.1300
3.7022,0.0240,0.0610,1.0960,12.9310,26.7480,-48.7020,34.2200
3.7094,0.0170,0.0210,1.1240,21.0840,22.7020,-47.4660,34.2700
3.7214,0.0280,0.0050,1.1730,24.9770,22.4580,-48.0000,34.2200
3.7287,0.0080,-0.0100,1.2030,18.0920,22.9010,-45.0380,34.2200
3.7403,-0.0100,-0.0020,1.2290,2.1980,27.9540,-42.1370,34.1800
3.7527,0.0110,0.0170,1.2120,-14.0000,30.9160,-41.8470,34.3200
3.7596,0.0130,0.0620,1.2030,-21.3440,33.9240,-40.8550,34.1800
3.7717,-0.0030,0.0360,1.1830,-21.1300,31.8020,-43.9240,34.2700
3.7787,-0.0080,0.0240,1.1740,-8.2290,31.2370,-44.7940,34.2200
3.7905,-0.0300,-0.0000,1.1620,2.7630,29.3440,-45.2370,34.1800
3.8025,-0.0260,0.0050,1.1490,0.4890,28.8850,-48.5040,34.2200
3.8098,-0.0200,0.0380,1.1460,-8.2900,28.8700,-46.6720,34.2200
3.8218,0.0150,0.0370,1.1280,-17.0230,25.8780,-45.1760,34.2700
3.8288,0.0160,0.0070,1.1230,-9.8930,21.9390,-42.4890,34.2200
3.8410,0.0180,-0.0430,1.1380,5.7250,20.1980,-32.1980,34.2200
3.8478,-0.0170,-0.0610,1.1660,11.2820,17.5570,-28.7180,34.1800
3.8599,-0.0270,-0.0130,1.2180,2.3820,21.6340,-26.9160,34.1300
3.8721,-0.0160,0.0110,1.2150,-11.9240,25.4960,-25.9540,34.1800
3.8791,-0.0230,0.0270,1.2060,-14.5950,28.8550,-25.9850,34.2200
3.8908,0.0120,0.0510,1.1840,-10.1680,30.3660,-26.5040,34.2200
3.8966,0.0080,0.0510,1.1530,-7.2060,31.0230,-28.9920,34.1800
3.9102,0.0420,0.0790,1.1880,-11.7560,31.4050,-35.4200,34.2200
3.9222,0.0310,0.0820,1.1590,-18.6870,30.8700,-43.1760,34.1300
3.9289,0.0390,0.0530,1.1680,-18.2750,28.6410,-43.4350,34.1800
3.9410,0.0290,0.0210,1.1730,-9.6340,28.1680,-34.3360,34.2200
3.9480,0.0080,-0.0030,1.1690,-2.5650,25.4660,-31.8930,34.0800
3.9602,-0.0140,-0.0110,1.1810,-0.2750,25.3440,-30.9470,34.2700
3.9725,-0.0080,-0.0340,1.1640,-1.6340,26.1680,-28.0310,34.2200
3.9793,-0.0490,-0.0580,1.2120,-4.6720,27.5570,-28.2750,34.1800
3.9910,-0.0330,-0.0400,1.1940,-6.5500,31.5270,-31.1910,34.1800
3.9979,-0.0240,-0.0100,1.1930,-7.9540,32.5190,-31.2060,34.2200
