Time AX AY AZ GX GY GZ
0.013144041004125029 0.08 0.161 1.208 -4.84 22.977 -45.145
0.025353083008667454 0.074 0.164 1.226 -5.382 24.282 -44.885
0.032241458000498824 0.054 0.162 1.246 -5.313 21.58 -43.405
0.04460345800907817 0.051 0.162 1.234 -5.702 18.557 -42.107
0.05156816600356251 0.043 0.161 1.235 -6.214 16.901 -41.802
0.0639454580086749 0.045 0.159 1.233 -6.634 14.847 -41.565
0.07597820799855981 0.061 0.147 1.213 -7.664 14.542 -41.687
0.08321354100189637 0.084 0.158 1.2 -9.153 17.725 -42.275
0.09523033299774397 0.108 0.164 1.201 -10.542 23.321 -42.702
0.10213016600755509 0.081 0.158 1.207 -12.137 26.687 -42.664
0.11405945800652262 0.047 0.146 1.217 -12.649 24.924 -41.969
0.1199379160098033 0.025 0.134 1.204 -12.0 20.786 -40.519
0.13314662499760743 0.025 0.126 1.188 -10.42 17.168 -40.092
0.14531920800800435 0.05 0.127 1.166 -8.809 16.344 -39.878
0.15249512500304263 0.058 0.117 1.163 -7.267 16.672 -39.809
0.1645775409997441 0.062 0.126 1.164 -7.267 18.962 -40.366
0.17145783299929462 0.051 0.133 1.179 -8.695 22.0 -41.092
0.1836505829996895 0.047 0.134 1.198 -10.695 23.641 -41.954
0.19576604101166595 0.042 0.134 1.191 -11.832 23.328 -41.84
0.20274987501034047 0.05 0.124 1.182 -11.992 22.481 -41.336
0.2148347080074018 0.047 0.117 1.193 -11.702 23.198 -40.847
0.22174729099788237 0.037 0.105 1.208 -10.191 22.641 -40.344
0.2338557080074679 0.011 0.104 1.219 -8.824 21.214 -40.321
0.24594404100207612 0.001 0.093 1.221 -7.145 18.053 -40.023
0.25322054100979585 0.008 0.09 1.224 -5.641 15.87 -40.382
0.2655818330094917 0.019 0.097 1.209 -5.176 15.779 -41.374
0.27228554101020563 0.035 0.105 1.215 -5.588 17.397 -42.954
0.28444950000266545 0.023 0.101 1.228 -6.153 17.664 -43.733
0.29154583300987724 0.037 0.102 1.219 -5.321 17.824 -43.771
0.30371862500032876 0.042 0.11 1.219 -5.832 17.725 -43.626
0.31578375000390224 0.032 0.117 1.229 -7.0 16.832 -43.779
0.32299791600962635 0.045 0.107 1.242 -7.298 15.015 -43.305
0.33508970800903626 0.071 0.121 1.217 -7.924 15.382 -42.885
0.34208562500134576 0.091 0.116 1.19 -9.481 18.443 -43.122
0.35412470799928997 0.085 0.118 1.183 -10.221 21.786 -42.718
0.35986658300680574 0.081 0.104 1.218 -10.298 25.305 -42.885
0.3731355000054464 0.038 0.124 1.203 -10.489 24.328 -43.038
0.385308625001926 0.039 0.122 1.199 -12.771 23.611 -43.382
0.39223329100059345 0.047 0.111 1.2 -13.786 23.351 -45.183
0.40430566600116435 0.058 0.128 1.214 -14.092 22.496 -45.756
0.41128549999848474 0.084 0.116 1.196 -14.115 24.244 -45.527
0.42340725001122337 0.086 0.101 1.19 -14.16 28.275 -46.053
0.4352307910012314 0.056 0.112 1.192 -13.817 28.588 -45.511
0.44249362499976996 0.063 0.101 1.208 -13.504 27.481 -44.55
0.4543066250043921 0.038 0.103 1.2 -13.16 24.45 -43.145
0.4615450410055928 0.045 0.094 1.194 -13.771 21.885 -41.771
0.4733833750069607 0.043 0.084 1.204 -14.725 19.13 -40.664
0.48550983300083317 0.042 0.083 1.193 -15.603 17.092 -40.305
0.4924086660030298 0.066 0.072 1.174 -16.382 19.107 -40.458
0.5046234580076998 0.085 0.063 1.151 -16.595 24.435 -42.046
0.5113215000019409 0.073 0.062 1.153 -17.153 30.176 -42.603
0.5235592500102939 0.041 0.051 1.166 -16.634 31.595 -43.252
0.5358254160091747 0.048 0.055 1.167 -15.435 31.649 -43.29
0.5426754159998382 0.029 0.057 1.165 -14.618 30.145 -42.344
0.5547910830064211 0.02 0.055 1.179 -14.603 27.366 -41.282
0.5618317909975303 0.005 0.052 1.189 -15.099 24.687 -40.725
0.5739779580035247 0.0 0.04 1.198 -15.176 22.267 -40.786
0.5857899580005324 0.013 0.044 1.175 -15.42 21.328 -41.092
0.5930849580036011 0.042 0.045 1.17 -15.748 23.603 -42.313
0.6047823330009123 0.046 0.052 1.176 -16.84 27.351 -43.481
0.612051625008462 0.047 0.052 1.169 -17.198 31.26 -43.954
0.6238830000074813 0.03 0.051 1.18 -17.656 32.458 -44.336
0.6360154160065576 0.018 0.048 1.196 -16.542 32.527 -44.115
0.642979958007345 0.029 0.056 1.199 -15.603 31.122 -43.641
0.6550311250030063 0.022 0.049 1.209 -14.198 28.931 -42.565
0.6619202080037212 0.025 0.055 1.208 -12.901 26.252 -41.115
0.6741169160086429 0.043 0.062 1.196 -13.527 26.489 -40.275
0.6799317500117468 0.044 0.057 1.202 -14.756 27.031 -40.344
0.6931377080036327 0.044 0.068 1.194 -16.664 26.962 -40.626
0.70545837499958 0.036 0.058 1.175 -19.084 27.076 -39.832
0.7123693330067908 0.039 0.045 1.174 -19.122 27.573 -38.725
0.7243817080016015 0.017 0.036 1.18 -18.458 27.206 -37.679
0.7312794580066111 -0.004 0.038 1.177 -17.176 25.794 -37.13
0.7431584580044728 0.004 0.018 1.183 -14.458 25.977 -37.412
0.7553333329997258 0.021 0.01 1.166 -11.947 27.985 -38.221
0.7623095410090173 0.015 0.003 1.173 -9.466 30.26 -38.313
0.7745863330055727 0.043 0.0 1.167 -7.664 31.107 -39.145
0.7813594160106732 0.001 0.033 1.193 -7.053 31.718 -36.603
0.7936653750075493 -0.041 0.04 1.185 -8.786 29.802 -37.145
0.8057844580034725 -0.053 0.024 1.202 -8.893 27.069 -38.176
0.8127251250116387 -0.052 0.024 1.194 -9.336 25.221 -41.374
0.8245728750043781 -0.016 0.026 1.181 -10.595 26.656 -43.771
0.8318252910103183 0.013 0.029 1.168 -11.145 30.893 -45.275
0.843596125007025 0.005 0.031 1.159 -10.878 35.092 -45.603
0.8557042500033276 -0.013 0.025 1.161 -9.992 35.832 -44.71
0.8626250000088476 -0.021 0.022 1.169 -9.527 34.664 -43.679
0.8747550830012187 -0.029 0.02 1.18 -8.405 32.427 -42.008
0.881723458005581 -0.036 0.019 1.175 -7.885 30.29 -41.176
0.8937897910072934 -0.047 0.014 1.185 -7.366 27.13 -39.634
0.9060523750085849 -0.049 0.026 1.192 -9.786 22.305 -38.534
0.9129465000005439 -0.043 0.006 1.187 -11.695 21.282 -38.626
0.9247877500019968 -0.037 0.006 1.166 -13.145 21.55 -40.122
0.9317477910080925 -0.019 0.002 1.14 -14.397 23.87 -41.443
0.9436197500035632 -0.007 -0.01 1.134 -14.496 27.977 -43.198
0.955580750000081 0.004 -0.019 1.105 -12.557 32.298 -44.534
0.9624310409999453 0.002 -0.014 1.119 -10.74 35.42 -44.634
0.9745911659992998 -0.017 0.003 1.112 -11.015 36.504 -44.092
0.9812153750099242 -0.037 0.0 1.165 -11.107 34.183 -42.626
0.9934128330060048 -0.046 0.009 1.19 -8.466 30.489 -40.695
1.0055920830054674 -0.027 -0.021 1.167 -5.748 24.351 -39.427
1.0130138750100741 -0.012 -0.001 1.137 -4.405 23.168 -36.504
1.024239457998192 0.013 -0.015 1.141 -3.405 22.786 -35.603
1.0332957909995457 0.003 -0.015 1.132 -1.496 24.481 -34.511
1.043449666001834 -0.026 -0.005 1.148 -1.84 26.756 -35.962
1.0553013750031823 -0.052 -0.006 1.163 -3.916 27.305 -37.855
1.0622216659976402 -0.061 -0.012 1.191 -3.962 26.916 -40.053
1.0744707910052966 -0.032 -0.01 1.184 -5.168 27.893 -42.916
1.0810156660008943 -0.012 0.004 1.152 -7.916 32.351 -45.321
1.0932333750097314 -0.018 0.003 1.162 -9.183 36.008 -45.534
1.1053097500116564 -0.05 0.005 1.17 -8.031 37.298 -44.0
1.1122045410011197 -0.077 -0.006 1.183 -5.557 34.588 -41.763
1.124457791011082 -0.098 -0.015 1.193 -2.725 30.237 -39.565
1.1309509160055313 -0.117 -0.02 1.191 -0.725 23.321 -38.084
1.1430421250115614 -0.094 -0.01 1.187 0.901 17.42 -35.992
1.1553019160055555 -0.066 0.0 1.177 -1.45 13.557 -36.359
1.1620030000049155 -0.071 0.004 1.186 -5.229 14.275 -37.588
1.174308250003378 -0.045 -0.003 1.194 -8.115 16.344 -40.206
1.1813575830019545 -0.041 -0.001 1.176 -9.84 19.824 -42.794
1.1929587500053458 -0.01 -0.011 1.133 -10.305 25.817 -44.863
1.2050988330011023 -0.012 -0.023 1.12 -9.237 30.977 -46.939
1.211769750007079 -0.029 -0.013 1.124 -8.679 33.084 -46.847
1.2239643330103718 -0.04 -0.019 1.126 -8.534 32.038 -45.725
1.23598487500567 -0.038 -0.022 1.134 -5.954 29.13 -42.542
1.2428415410104208 -0.054 -0.027 1.146 -1.359 23.87 -38.366
1.2547147080040304 -0.07 -0.034 1.127 2.183 17.924 -33.756
1.2618300410103984 -0.083 -0.048 1.146 6.382 11.756 -30.069
1.2740654579974944 -0.077 -0.036 1.129 9.282 7.58 -27.786
1.2859696250088746 -0.071 -0.042 1.123 10.122 5.191 -27.504
1.2929679579974618 -0.079 -0.047 1.14 12.74 4.252 -27.832
1.305056458004401 -0.052 -0.05 1.137 17.985 8.023 -27.855
1.3120395830046618 -0.083 -0.021 1.132 18.267 5.282 -30.802
1.324258207998355 -0.081 -0.013 1.144 17.817 5.321 -31.527
1.330980750004528 -0.053 -0.038 1.14 18.557 6.557 -34.672
1.3429595830093604 -0.054 -0.025 1.126 22.42 9.931 -37.069
1.355365666007856 -0.019 0.013 1.111 21.466 13.802 -40.588
1.3623233750113286 -0.028 0.032 1.115 17.588 15.267 -41.817
1.3745152080082335 -0.008 0.019 1.139 17.931 16.824 -41.015
1.3812946250109235 -0.016 0.027 1.123 19.611 17.023 -41.092
1.3931952080019983 -0.038 0.049 1.116 16.786 16.053 -41.977
1.405505708011333 -0.041 0.054 1.147 13.069 14.229 -43.435
1.4122391660057474 -0.042 0.07 1.182 7.336 12.008 -44.527
1.424920416000532 -0.025 0.062 1.232 4.756 8.885 -44.641
1.4315561250114115 -0.006 0.097 1.235 1.084 10.122 -43.679
1.443863375010551 0.035 0.095 1.219 -6.031 14.176 -42.634
1.4560658330010483 0.025 0.065 1.231 -9.473 19.573 -42.458
1.4628868330037221 -0.014 0.064 1.197 -12.55 21.153 -42.031
1.4751365830015857 -0.016 0.053 1.163 -15.55 21.832 -40.519
1.481955208000727 -0.023 0.043 1.141 -17.435 24.351 -41.389
1.4937829580012476 -0.055 0.026 1.155 -16.58 26.0 -41.885
1.505769291004981 -0.09 0.011 1.169 -15.183 24.137 -43.069
1.5126020410098135 -0.093 0.003 1.173 -11.901 21.42 -43.794
1.5249249580083415 -0.1 0.003 1.158 -10.206 18.122 -44.817
1.531590958009474 -0.087 -0.004 1.164 -8.092 16.389 -45.802
1.5436065000103554 -0.063 0.009 1.152 -8.771 15.771 -47.008
1.5557504580065142 -0.064 0.016 1.182 -8.756 15.435 -47.55
1.562503833003575 -0.049 0.008 1.16 -6.817 17.13 -48.664
1.5749840830103494 -0.033 0.01 1.142 -6.366 18.557 -50.389
1.5815383750014007 -0.026 0.011 1.157 -5.336 20.687 -50.718
1.5937662500073202 -0.022 0.012 1.153 -5.603 21.427 -50.458
1.6060854160023155 -0.029 0.012 1.153 -6.038 21.374 -49.878
1.612919375009369 -0.023 0.01 1.173 -5.412 20.748 -48.847
1.6250593330041738 -0.034 0.014 1.174 -5.206 19.748 -47.977
1.6318094580055913 -0.042 0.011 1.172 -5.573 18.321 -46.649
1.6441643330035731 -0.044 0.003 1.169 -4.13 16.939 -45.466
1.6560045410005841 -0.032 -0.001 1.173 -3.359 15.771 -44.252
1.6628502910025418 -0.024 -0.012 1.169 -1.611 16.733 -44.412
1.675259833005839 -0.03 -0.012 1.156 1.542 18.824 -46.031
1.6817717500089202 -0.033 -0.01 1.166 2.786 21.069 -48.832
1.6940489580010762 -0.042 0.007 1.167 1.351 19.939 -49.885
1.7010329160111723 -0.013 0.001 1.16 0.527 21.008 -51.153
1.713377666004817 0.024 0.002 1.147 1.748 26.153 -52.008
1.7256597910018172 0.034 0.018 1.134 -0.099 30.29 -52.42
1.7325588750099996 0.007 0.029 1.172 -0.947 31.588 -51.557
1.7448131660057697 -0.004 0.011 1.197 2.328 30.191 -50.412
1.7517229160002898 -0.025 0.032 1.171 3.45 26.496 -48.779
1.7638177500048187 -0.003 0.015 1.204 7.015 24.336 -46.718
1.7760788330051582 0.015 0.025 1.137 12.42 28.061 -45.427
1.7830556660046568 -0.014 0.054 1.12 8.588 27.626 -46.366
1.7952455000049667 -0.065 0.046 1.15 5.504 27.366 -45.0
1.80224887499935 -0.063 0.019 1.178 6.29 25.649 -45.824
1.8145114580111112 -0.071 0.023 1.169 8.511 22.908 -45.947
1.8213148330105469 -0.094 0.029 1.129 9.328 19.015 -44.145
1.8337212500046007 -0.059 0.012 1.135 10.061 16.672 -43.649
1.8458151250088122 -0.051 0.019 1.103 7.771 16.664 -43.649
1.852778083004523 -0.056 0.057 1.074 -1.618 17.008 -42.397
1.864701791011612 -0.027 0.048 1.158 -10.794 18.847 -42.931
1.871451833008905 -0.049 0.092 1.092 -21.87 22.992 -44.374
1.8836730410112068 -0.06 0.078 1.111 -36.244 26.328 -46.748
1.8954908330051694 -0.037 0.152 1.011 -65.557 30.885 -50.771
1.9024365829973249 -0.077 0.138 1.271 -91.13 41.397 -48.939
1.91452154100989 0.073 -0.561 1.757 4.244 48.931 -63.298
1.9216372910013888 -0.129 0.135 1.023 26.229 52.557 -50.763
1.933588250001776 -0.073 0.027 0.932 15.031 36.863 -49.313
1.9457270830025664 -0.025 -0.013 1.121 6.817 31.969 -54.397
1.9526475410093553 -0.086 -0.106 1.208 25.099 28.305 -57.473
1.964808875010931 -0.278 0.039 1.04 28.405 14.145 -44.679
1.97174570801144 -0.13 0.066 0.918 7.168 -7.0 -38.221
1.9838544160011224 -0.035 0.031 1.104 -9.679 -5.122 -39.42
1.9960594580043107 0.021 -0.108 1.276 3.985 9.183 -45.893
2.0029767910018563 -0.105 -0.035 1.175 19.618 16.885 -42.015
2.015162291005254 -0.058 0.004 1.063 17.321 11.527 -37.55
2.0223012500064215 0.044 0.042 0.973 1.84 15.153 -40.366
2.034347416003584 0.053 0.069 1.043 -19.595 23.947 -46.542
2.041139250010019 -0.001 0.01 1.211 -28.702 29.214 -51.366
2.0531858330068644 -0.09 0.09 1.036 -45.931 28.573 -51.672
2.065102458000183 -0.124 0.198 0.917 -94.237 23.328 -50.817
2.0720153330039466 -0.097 0.125 1.14 -145.198 20.214 -51.137
2.0838787910033716 -0.059 -0.159 1.604 -129.206 27.504 -50.397
2.095784832999925 0.078 -0.24 1.487 -56.679 54.038 -58.008
2.1027085829991847 -0.18 0.03 1.209 -54.74 50.076 -59.313
2.1146831660007592 -0.204 -0.034 1.294 -45.481 37.962 -51.573
2.1214454580040183 -0.162 -0.063 1.261 -36.718 23.221 -48.534
2.133479416006594 -0.074 -0.093 1.221 -28.84 15.809 -47.847
2.1453562910028268 -0.028 -0.085 1.152 -24.786 13.725 -46.725
2.15198995800165 -0.015 -0.091 1.145 -23.16 14.015 -45.656
2.16393754100136 -0.042 -0.105 1.182 -19.008 15.282 -44.229
2.175759999998263 -0.105 -0.11 1.225 -12.809 13.573 -43.107
2.18299954100803 -0.128 -0.117 1.22 -8.985 9.351 -42.534
2.194822875011596 -0.105 -0.114 1.202 -9.252 8.389 -43.756
2.201810791011667 -0.073 -0.122 1.186 -12.115 12.267 -46.481
2.21391500000027 -0.08 -0.115 1.169 -16.328 15.344 -47.695
2.225616958006867 -0.057 -0.129 1.181 -20.947 17.221 -47.672
2.2325952910032356 -0.035 -0.149 1.174 -24.023 19.786 -47.84
2.2443722910102224 -0.037 -0.162 1.172 -24.885 22.473 -49.0
2.2501460000057705 -0.064 -0.156 1.167 -25.122 22.916 -50.061
2.2629299580003135 -0.075 -0.16 1.172 -24.45 20.924 -49.328
2.2747274580033263 -0.058 -0.18 1.145 -21.313 19.977 -49.221
2.2815544580080314 -0.025 -0.188 1.109 -17.221 21.557 -49.198
2.293688999998267 -0.003 -0.169 1.076 -13.664 26.695 -50.443
2.3057596660073614 -0.015 -0.16 1.083 -11.29 31.275 -51.427
2.3126120410015574 -0.053 -0.147 1.124 -10.26 30.534 -51.13
2.3244346660067094 -0.066 -0.15 1.133 -8.885 27.427 -49.168
2.3313719160069013 -0.056 -0.154 1.141 -8.687 24.092 -47.557
2.3431341660034377 -0.023 -0.146 1.136 -9.153 23.412 -46.061
2.3548576250032056 -0.018 -0.138 1.139 -12.153 23.282 -44.221
2.3620097500097472 -0.024 -0.152 1.136 -14.183 24.634 -42.58
2.373907916000462 -0.03 -0.152 1.14 -13.641 26.489 -41.71
2.3857817910029553 -0.031 -0.158 1.133 -13.115 29.45 -42.244
2.3926696660055313 -0.046 -0.151 1.116 -13.237 32.374 -43.985
2.404574208005215 -0.043 -0.158 1.13 -12.076 35.878 -45.908
2.411220833004336 -0.06 -0.172 1.118 -10.664 37.336 -47.885
2.4231995410082163 -0.08 -0.168 1.126 -10.053 35.55 -48.015
2.435278290999122 -0.087 -0.157 1.142 -8.969 32.595 -46.603
2.442169665999245 -0.088 -0.164 1.157 -8.145 29.16 -44.588
2.454065291007282 -0.08 -0.151 1.158 -7.702 26.618 -42.626
2.4659867910086177 -0.074 -0.167 1.15 -7.695 26.053 -41.221
2.472959916005493 -0.073 -0.178 1.142 -7.519 26.534 -40.725
2.485009666008409 -0.074 -0.182 1.13 -7.435 27.366 -40.382
2.4919292910053628 -0.073 -0.192 1.133 -7.313 28.527 -39.954
2.5038752500113333 -0.107 -0.187 1.143 -6.702 27.557 -39.305
2.51576575000945 -0.139 -0.195 1.151 -5.153 25.206 -38.16
2.522744041008991 -0.143 -0.195 1.138 -3.656 23.008 -38.397
