Time AX AY AZ GX GY GZ
0.019592791999457404 0.165 0.278 1.178 -5.557 18.641 -43.313
0.026593500006129034 0.165 0.269 1.171 -3.122 17.427 -42.809
0.03873045899672434 0.176 0.271 1.167 -0.542 15.969 -42.137
0.045852708994061686 0.174 0.276 1.176 0.901 15.985 -42.305
0.05817558399576228 0.191 0.287 1.173 0.954 18.275 -43.137
0.07023233400832396 0.204 0.291 1.166 -1.847 21.237 -44.557
0.07744804200774524 0.206 0.305 1.18 -4.687 23.634 -44.71
0.08955016700201668 0.186 0.303 1.195 -7.221 24.832 -44.229
0.09647845900326502 0.171 0.302 1.197 -8.405 22.511 -42.519
0.10859666700707749 0.172 0.283 1.189 -7.55 20.74 -40.443
0.11576741699536797 0.146 0.274 1.208 -6.511 18.198 -40.42
0.12798966700211167 0.149 0.282 1.191 -6.641 17.336 -40.107
0.14017979199707042 0.165 0.275 1.193 -6.58 16.977 -40.359
0.1473249999980908 0.194 0.279 1.181 -6.71 18.58 -40.878
0.15954220900312066 0.208 0.258 1.16 -6.565 20.229 -41.328
0.1660207920067478 0.188 0.249 1.183 -4.901 21.252 -41.748
0.17818220899789594 0.173 0.253 1.196 -2.115 19.466 -40.687
0.18441600000369363 0.164 0.247 1.205 1.687 16.13 -38.786
0.19788841699482873 0.149 0.254 1.201 3.42 13.977 -37.618
0.21004904199799057 0.17 0.258 1.208 5.183 12.847 -36.901
0.2172569999966072 0.191 0.25 1.198 6.924 13.015 -38.221
0.22940837500209454 0.219 0.258 1.171 7.649 16.427 -39.168
0.23651179199805483 0.222 0.253 1.172 8.076 19.137 -40.405
0.24866075000318233 0.179 0.241 1.194 11.084 20.55 -40.466
0.255617250004434 0.141 0.235 1.207 15.885 17.405 -39.618
0.26784425000369083 0.145 0.248 1.182 20.321 16.313 -38.015
0.28128754200588446 0.167 0.27 1.181 19.412 16.389 -38.382
0.28729091699642595 0.177 0.287 1.186 16.779 16.924 -39.481
0.2994033750001108 0.187 0.314 1.167 12.504 19.534 -40.908
0.30640304200642277 0.232 0.295 1.183 13.802 28.107 -42.473
0.3187270000053104 0.168 0.333 1.199 7.588 24.725 -46.153
0.3256569170043804 0.165 0.337 1.245 8.885 26.206 -42.672
0.33811091700044926 0.174 0.325 1.23 6.84 20.885 -44.389
0.3501150840020273 0.205 0.325 1.177 7.168 26.214 -43.527
0.35728379200736526 0.219 0.306 1.186 6.695 27.847 -44.832
0.36954870900081005 0.185 0.352 1.175 3.214 24.565 -44.649
0.37644070900569204 0.145 0.358 1.192 -1.832 18.275 -41.435
0.3885701249964768 0.18 0.32 1.214 -1.015 15.588 -39.191
0.3957725840009516 0.229 0.323 1.174 0.206 17.954 -39.74
0.4079920000076527 0.256 0.328 1.137 -2.076 23.038 -40.26
0.42006704199593514 0.266 0.311 1.144 -3.168 30.313 -41.847
0.42716000000655185 0.233 0.319 1.145 -3.763 35.382 -43.832
0.4393490000074962 0.175 0.332 1.16 -8.969 34.198 -43.275
0.4462197499960894 0.156 0.339 1.141 -15.13 30.45 -42.13
0.4583978750015376 0.137 0.32 1.13 -21.115 25.786 -41.092
0.47049862499989104 0.158 0.299 1.142 -23.679 22.427 -40.176
0.4773637089965632 0.179 0.293 1.133 -24.748 21.863 -39.947
0.48954183400201146 0.197 0.272 1.112 -25.038 24.511 -41.0
0.4964845000067726 0.22 0.256 1.106 -23.809 28.809 -42.824
0.5085999590082793 0.219 0.237 1.088 -22.71 33.282 -45.214
0.5205815420049476 0.18 0.219 1.091 -20.26 36.382 -46.817
0.5278405840072082 0.127 0.238 1.113 -18.427 35.16 -47.351
0.5395782090054126 0.097 0.244 1.128 -17.405 31.313 -45.809
0.5464329999958863 0.091 0.223 1.133 -16.725 25.542 -44.237
0.5586890419945121 0.106 0.227 1.142 -13.565 23.26 -43.008
0.5657990839972626 0.111 0.242 1.163 -10.473 18.221 -40.336
0.5776913750014501 0.131 0.26 1.13 -11.267 13.702 -36.336
0.5899141669942765 0.199 0.26 1.087 -14.557 15.053 -34.351
0.5967065000004368 0.24 0.236 1.087 -17.595 23.29 -37.947
0.6088457919977373 0.196 0.247 1.069 -20.298 32.206 -42.023
0.6157434589986224 0.184 0.24 1.052 -25.374 37.573 -45.221
0.6279208750056569 0.165 0.215 1.079 -27.855 40.473 -47.58
0.6401577500073472 0.135 0.201 1.097 -24.969 40.756 -46.954
0.6469477500068024 0.097 0.194 1.126 -21.412 38.267 -44.504
0.6590865000034682 0.067 0.205 1.121 -18.412 33.29 -41.71
0.6659933750052005 0.079 0.189 1.133 -13.947 29.13 -40.13
0.67814245900081 0.07 0.199 1.119 -11.16 26.664 -41.443
0.6900845420022961 0.083 0.204 1.116 -11.046 26.565 -43.611
0.6972297920001438 0.11 0.21 1.107 -12.221 28.687 -47.16
0.709065749993897 0.145 0.202 1.101 -13.359 33.489 -50.977
0.7162284170044586 0.164 0.213 1.113 -12.763 38.771 -54.344
0.7281574999942677 0.134 0.229 1.125 -11.809 40.733 -54.153
0.7402352089993656 0.107 0.235 1.134 -11.389 38.939 -51.374
0.7472355420031818 0.073 0.235 1.151 -10.397 34.053 -47.076
0.7593720419972669 0.037 0.215 1.178 -7.573 24.878 -42.29
0.7665296670020325 0.036 0.198 1.163 -3.573 14.595 -36.55
0.7789548340078909 0.09 0.19 1.146 1.038 7.977 -32.908
0.7859430420066928 0.172 0.183 1.122 4.824 9.55 -33.145
0.7981862089945935 0.214 0.205 1.089 4.55 17.244 -37.366
0.8106322920066305 0.177 0.23 1.122 1.237 24.695 -42.198
0.8174055419949582 0.126 0.234 1.126 -1.985 29.16 -45.168
0.8295190420030849 0.097 0.22 1.133 -3.802 30.656 -47.595
0.8367796670063399 0.078 0.206 1.144 -4.466 29.466 -49.969
0.848816124998848 0.067 0.202 1.152 -4.42 26.779 -50.031
0.8560668340069242 0.093 0.199 1.141 -3.794 25.053 -49.458
0.8682340840023244 0.125 0.208 1.148 -2.679 25.473 -49.534
0.8802607920079026 0.125 0.213 1.144 -3.191 27.405 -50.0
0.8871503749978729 0.119 0.223 1.136 -5.351 29.092 -50.336
0.8993257920083124 0.116 0.223 1.135 -7.672 29.206 -50.046
0.9064779589971295 0.119 0.222 1.127 -8.496 29.42 -50.053
0.9186270420032088 0.119 0.233 1.139 -10.634 29.756 -49.519
0.9304793339979369 0.1 0.229 1.135 -12.649 29.702 -49.221
0.9376539999939268 0.092 0.209 1.147 -12.924 29.84 -49.947
0.9495279170077993 0.076 0.207 1.136 -13.069 30.603 -52.092
0.9565427089983132 0.087 0.198 1.115 -15.336 34.092 -56.565
0.9684744590049377 0.104 0.179 1.099 -16.656 40.511 -62.252
0.9756182919954881 0.092 0.162 1.105 -16.542 45.45 -65.878
0.9873662089958088 0.069 0.17 1.126 -15.634 44.176 -65.458
0.9996704170043813 0.044 0.17 1.132 -13.931 39.573 -61.588
1.0066515000071377 0.051 0.165 1.171 -9.313 35.252 -56.015
1.0190057500003604 0.053 0.192 1.172 -5.939 28.458 -49.344
1.0256944169959752 0.062 0.207 1.163 -6.229 22.481 -42.099
1.0379764170065755 0.065 0.186 1.165 -5.924 19.649 -37.122
1.0502161250042263 0.054 0.192 1.143 -5.931 17.901 -35.534
1.0572139590076404 0.071 0.181 1.135 -7.29 19.084 -36.588
1.0694695840065833 0.096 0.179 1.123 -8.511 23.832 -40.992
1.0762512920045992 0.101 0.174 1.108 -10.939 31.985 -48.122
1.0884543749998556 0.086 0.179 1.128 -12.786 40.183 -54.733
1.0940733750030631 0.061 0.183 1.131 -14.366 43.985 -58.893
1.1075371670012828 0.025 0.198 1.151 -16.229 42.084 -58.901
1.1198041669995291 0.017 0.19 1.166 -16.0 36.74 -55.191
1.1264702920016134 0.027 0.168 1.156 -13.817 32.053 -50.985
1.138712833999307 0.036 0.164 1.161 -11.824 27.573 -46.779
1.1457534590008436 0.036 0.161 1.149 -10.672 25.061 -44.305
1.1580645000067307 0.029 0.163 1.157 -10.817 24.557 -44.611
1.1697584590001497 0.022 0.162 1.139 -12.458 26.641 -47.176
1.1769999170064693 0.024 0.155 1.139 -13.527 29.55 -50.947
1.188888083997881 0.014 0.15 1.127 -14.336 32.099 -54.031
1.1960829589952482 0.02 0.163 1.13 -15.374 33.435 -55.954
1.207961084000999 0.015 0.155 1.155 -15.695 32.374 -56.061
1.2200992919970304 0.016 0.169 1.179 -14.893 29.466 -54.092
1.226882500006468 0.016 0.183 1.196 -13.901 25.443 -49.931
1.2392180000024382 0.026 0.187 1.214 -11.695 21.649 -44.656
1.2463633339939406 0.01 0.185 1.223 -9.695 17.542 -40.733
1.2584376669983612 0.003 0.193 1.205 -9.107 15.099 -39.153
1.2703935000026831 0.021 0.18 1.185 -10.763 15.992 -40.809
1.2774057500064373 0.035 0.175 1.181 -14.489 21.214 -45.397
1.2894439999945462 0.033 0.156 1.16 -20.076 26.977 -50.45
1.2965683340007672 0.012 0.156 1.179 -23.786 30.817 -53.763
1.308378834000905 -0.009 0.134 1.202 -24.191 29.076 -54.008
1.320422792006866 -0.017 0.134 1.181 -23.626 25.863 -51.626
1.3272374999942258 -0.009 0.126 1.195 -21.405 21.824 -48.863
1.3394860840053298 -0.004 0.118 1.176 -18.481 18.382 -46.282
1.3460976670030504 0.003 0.127 1.168 -16.679 16.321 -44.771
1.3584344999981113 0.046 0.121 1.164 -16.458 17.702 -44.863
1.3703242500050692 0.055 0.122 1.165 -17.481 20.763 -46.756
1.377499334004824 0.055 0.127 1.16 -18.405 24.229 -47.702
1.3891356670064852 0.038 0.131 1.162 -20.618 26.16 -48.672
1.3964928339992184 0.012 0.129 1.181 -20.863 26.229 -49.069
1.4084622090013 0.002 0.125 1.186 -20.328 25.931 -49.397
1.420469292002963 0.001 0.112 1.202 -19.954 25.855 -50.183
1.4274548340035835 0.013 0.124 1.175 -20.55 26.443 -50.809
1.439584209001623 0.017 0.112 1.183 -21.115 27.74 -51.382
1.4464555000013206 0.024 0.106 1.173 -21.565 28.168 -50.962
1.4585954590002075 0.032 0.101 1.153 -21.443 28.351 -49.733
1.4644317920028698 0.021 0.084 1.167 -20.16 28.954 -48.427
1.4776386669982458 -0.009 0.092 1.161 -18.534 29.191 -47.267
1.48951912499615 -0.022 0.101 1.176 -18.046 28.305 -45.985
1.4964811670070048 -0.024 0.085 1.183 -17.313 26.74 -45.954
1.5089854590041796 -0.014 0.094 1.179 -17.153 26.679 -47.244
1.520597958995495 0.017 0.085 1.181 -18.237 28.855 -49.763
1.5273433749971446 0.014 0.08 1.181 -19.74 31.321 -51.618
1.5396036250022007 0.003 0.096 1.205 -20.71 33.351 -53.511
1.546253542008344 -0.014 0.099 1.199 -23.13 34.267 -54.534
1.5583973750035511 -0.004 0.1 1.188 -26.061 34.252 -55.244
1.5704485419992125 0.023 0.1 1.186 -27.687 34.0 -54.55
1.577513917000033 0.028 0.086 1.188 -27.748 33.687 -52.519
1.589419584008283 0.006 0.085 1.178 -27.275 31.611 -49.344
1.5961489170003915 -0.004 0.08 1.175 -26.45 28.664 -45.344
1.6083404999953927 -0.006 0.055 1.189 -23.336 25.084 -42.595
1.6205029169941554 -0.009 0.055 1.165 -20.412 23.282 -41.656
1.62740404199576 0.005 0.059 1.143 -20.115 24.191 -41.504
1.6394919589947676 0.015 0.045 1.148 -20.527 26.565 -42.916
1.6464178750029532 0.018 0.039 1.141 -20.893 29.496 -44.466
1.6586539169948082 0.021 0.037 1.158 -20.954 32.939 -46.641
1.6704528749978635 0.011 0.053 1.159 -21.374 34.42 -47.84
1.6776459170068847 0.015 0.058 1.146 -22.931 34.458 -47.42
1.689569209003821 -0.002 0.04 1.165 -23.664 33.863 -46.435
1.6963303749944316 -0.031 0.026 1.183 -22.061 31.786 -45.29
1.7083966250065714 -0.056 0.02 1.186 -20.397 28.847 -43.466
1.720498291993863 -0.05 0.001 1.186 -19.45 26.344 -42.061
1.7271795419947011 -0.03 -0.005 1.165 -19.069 25.947 -41.527
1.739036084007239 -0.009 -0.009 1.155 -19.115 26.779 -41.649
1.7459738750039833 -0.013 -0.009 1.159 -18.718 27.901 -42.565
1.7579332500026794 -0.013 -0.015 1.141 -19.611 29.931 -43.84
1.7698674999992363 -0.014 -0.023 1.146 -21.366 31.939 -45.527
1.7765617499971995 -0.028 -0.017 1.146 -21.527 34.008 -45.527
1.7886783340072725 -0.033 -0.037 1.152 -20.908 34.405 -45.275
1.8005097919958644 -0.052 -0.035 1.166 -19.641 32.557 -43.947
1.8072715419984888 -0.062 -0.046 1.17 -18.038 29.687 -42.29
1.8190688750037225 -0.065 -0.035 1.16 -16.809 27.466 -40.382
1.8260620000073686 -0.062 -0.025 1.156 -17.748 25.55 -39.298
1.837934666997171 -0.07 -0.029 1.154 -18.214 26.695 -39.786
1.8498029589973157 -0.08 -0.046 1.153 -17.824 28.656 -41.015
1.8567463750077877 -0.089 -0.042 1.173 -16.298 30.328 -42.557
1.8686549169942737 -0.099 -0.04 1.172 -16.603 29.359 -43.649
1.8805298749939539 -0.078 -0.034 1.179 -19.0 28.481 -42.939
1.887306083997828 -0.059 -0.044 1.157 -19.756 28.58 -40.595
1.899085416996968 -0.051 -0.076 1.145 -17.962 27.885 -38.931
1.9060455419967184 -0.074 -0.092 1.135 -15.13 25.626 -37.336
1.917882459005341 -0.098 -0.101 1.141 -10.916 23.115 -35.901
1.929826542007504 -0.114 -0.096 1.122 -8.763 19.901 -34.206
1.9367039170028875 -0.104 -0.117 1.107 -7.656 18.519 -32.481
1.948831583998981 -0.086 -0.14 1.111 -4.992 19.992 -32.366
1.9558186670037685 -0.066 -0.139 1.101 -1.924 24.244 -34.504
1.9677072089980356 -0.063 -0.12 1.092 -1.176 31.382 -38.786
1.9795111249986803 -0.068 -0.073 1.119 -5.313 38.649 -43.45
1.9864677090081386 -0.062 -0.07 1.146 -8.107 42.74 -45.565
1.9986517090001144 -0.065 -0.071 1.194 -7.252 42.565 -44.893
2.010452250004164 -0.08 -0.057 1.178 -5.16 39.069 -40.603
2.0174313339957735 -0.129 -0.075 1.198 -0.573 33.344 -37.282
2.0296348340052646 -0.219 -0.085 1.219 5.214 24.611 -34.878
2.036456875008298 -0.252 -0.065 1.228 7.13 13.611 -32.947
2.0487359999970067 -0.206 -0.062 1.204 8.359 6.573 -33.985
2.055801167007303 -0.12 -0.058 1.159 9.336 8.45 -39.481
2.0675934169994434 -0.033 -0.034 1.081 4.183 17.649 -47.954
2.0799582920008106 -0.004 -0.025 1.074 -3.863 29.634 -58.023
2.0865162090049125 -0.014 -0.023 1.107 -10.084 40.74 -66.015
2.0983574999991106 -0.046 -0.017 1.122 -13.863 46.405 -69.435
2.1102195840066997 -0.046 -0.024 1.15 -14.45 47.542 -68.099
2.1172314590075985 -0.047 -0.025 1.167 -12.366 44.901 -62.84
2.129028291994473 -0.089 -0.018 1.196 -9.023 37.847 -56.092
2.1361076250032056 -0.14 -0.006 1.205 -5.344 28.374 -47.832
2.148183875004179 -0.142 -0.017 1.208 -2.435 19.069 -41.031
2.160067834003712 -0.127 -0.028 1.183 -2.092 12.802 -37.809
2.1670492499979446 -0.08 -0.034 1.141 -3.527 12.74 -37.725
2.1788481670082547 -0.042 -0.052 1.136 -5.13 17.084 -41.603
2.185745833994588 -0.041 -0.049 1.108 -7.573 24.679 -46.504
2.19770587500534 -0.068 -0.037 1.124 -11.008 30.489 -50.855
2.2095279170025606 -0.133 -0.05 1.168 -11.939 30.947 -53.061
2.2165030000032857 -0.158 -0.044 1.169 -11.168 29.443 -52.328
2.228385167007218 -0.149 -0.053 1.17 -10.725 25.099 -50.794
2.2403137920045992 -0.129 -0.065 1.185 -9.672 20.962 -47.847
2.2472406669985503 -0.12 -0.062 1.177 -8.718 16.924 -44.656
2.259274500000174 -0.119 -0.074 1.161 -7.847 14.458 -41.45
2.2662627499958035 -0.12 -0.075 1.159 -7.107 11.42 -39.649
2.278059083997505 -0.135 -0.091 1.193 -8.809 10.328 -39.328
2.290232333994936 -0.134 -0.101 1.178 -8.069 10.45 -40.427
2.296860292000929 -0.107 -0.12 1.176 -5.389 12.573 -43.908
2.3089784589974442 -0.076 -0.107 1.133 -5.962 16.145 -47.137
2.315799459000118 -0.066 -0.095 1.148 -8.557 19.389 -47.985
2.3279712090006797 -0.074 -0.099 1.174 -9.489 19.878 -45.832
2.3398819169960916 -0.089 -0.098 1.165 -9.214 17.977 -41.519
2.346787874994334 -0.12 -0.107 1.192 -7.427 15.443 -37.084
2.3589903749962104 -0.174 -0.101 1.21 -4.405 11.053 -33.336
2.3657994590030285 -0.197 -0.092 1.203 -2.321 4.947 -30.061
2.377656750002643 -0.177 -0.111 1.197 -1.42 -0.672 -28.298
2.389771792004467 -0.146 -0.135 1.174 0.053 -2.099 -30.58
2.396643583997502 -0.108 -0.132 1.138 -0.16 0.153 -35.748
2.4088251250068424 -0.079 -0.12 1.127 -2.244 5.038 -41.336
2.4156693749973783 -0.055 -0.103 1.114 -5.58 11.069 -45.176
2.427673666999908 -0.057 -0.099 1.106 -9.931 14.092 -47.931
2.439521791995503 -0.077 -0.116 1.132 -10.718 14.847 -48.366
2.446447459005867 -0.081 -0.122 1.133 -9.489 12.603 -47.176
2.458633959002327 -0.057 -0.118 1.109 -8.534 11.29 -45.321
2.4704684169992106 -0.024 -0.124 1.097 -6.679 12.443 -43.786
2.4774284589948365 -0.007 -0.099 1.101 -6.176 14.076 -42.122
2.489301499997964 -0.008 -0.095 1.089 -5.947 14.947 -40.466
2.4962246250070166 -0.029 -0.095 1.063 -4.756 16.046 -39.092
2.508406709006522 -0.086 -0.116 1.087 -2.038 13.885 -38.679
2.5204871250025462 -0.131 -0.108 1.091 2.71 9.489 -38.641
2.5274276249983814 -0.118 -0.081 1.084 5.954 6.824 -39.092
