Time AX AY AZ GX GY GZ
0.014227834006305784 0.03 0.189 1.212 -3.649 18.58 -42.069
0.026467208997928537 0.036 0.192 1.202 -2.885 17.489 -42.687
0.038711291999788955 0.057 0.19 1.203 -3.046 18.519 -43.634
0.04551520899985917 0.069 0.188 1.194 -2.588 20.695 -44.336
0.057916208999813534 0.059 0.195 1.206 -2.916 21.397 -44.115
0.06502970900328364 0.05 0.197 1.219 -2.695 22.107 -43.702
0.07718729200132657 0.042 0.212 1.215 -3.962 21.313 -43.328
0.08439183399605099 0.036 0.207 1.214 -5.802 22.015 -41.733
0.09645695899962448 0.071 0.217 1.213 -7.092 22.282 -42.244
0.10856370900000911 0.066 0.208 1.233 -8.382 24.87 -42.405
0.11545700000715442 0.059 0.199 1.237 -8.084 26.947 -42.901
0.12758079200284556 0.044 0.203 1.225 -8.489 27.916 -42.954
0.13474729200243019 0.028 0.196 1.256 -7.954 26.908 -42.374
0.1469222500018077 0.016 0.199 1.263 -8.191 24.885 -41.55
0.15916462500172202 0.024 0.191 1.248 -7.947 22.931 -41.145
0.16611716699844692 0.022 0.187 1.246 -7.992 21.931 -41.427
0.1781723339954624 0.021 0.191 1.236 -10.183 21.015 -41.015
0.18538475000241306 0.028 0.176 1.233 -11.977 20.618 -41.55
0.19722308400378097 0.036 0.167 1.218 -13.076 22.55 -42.817
0.20437108400801662 0.03 0.159 1.202 -14.878 21.779 -43.321
0.21617012500064448 0.028 0.143 1.204 -13.855 22.603 -43.137
0.22827608400257304 0.025 0.144 1.199 -13.099 21.863 -43.359
0.23518404200149234 0.02 0.134 1.2 -11.252 21.206 -42.664
0.24736912500520702 0.014 0.141 1.218 -9.908 19.496 -42.16
0.25429716700455174 0.022 0.145 1.203 -10.176 18.511 -41.893
0.26652620900131296 0.027 0.148 1.203 -11.595 18.008 -42.298
0.27854729200771544 0.034 0.146 1.203 -13.16 18.863 -42.008
0.2854463340045186 0.043 0.13 1.202 -13.031 21.137 -42.664
0.29756270900543313 0.04 0.136 1.212 -13.351 22.046 -42.489
0.3046295420062961 0.026 0.148 1.208 -14.053 22.046 -41.718
0.3166141670080833 0.038 0.146 1.203 -14.527 22.931 -41.977
0.328803209005855 0.017 0.135 1.216 -13.695 23.382 -43.13
0.33577829200658016 0.013 0.141 1.219 -13.168 22.893 -43.382
0.3479797089967178 0.02 0.137 1.211 -12.206 23.046 -44.176
0.35494316699623596 0.046 0.136 1.187 -12.0 24.641 -45.099
0.3669312090059975 0.043 0.138 1.202 -11.221 25.779 -45.443
0.378767959002289 0.038 0.15 1.208 -10.496 25.328 -45.015
0.38590887500322424 0.041 0.167 1.189 -12.74 25.542 -45.504
0.3978244169993559 0.04 0.16 1.216 -14.45 26.695 -47.252
0.4049749590049032 0.038 0.171 1.219 -16.702 27.427 -48.656
0.4168713749968447 0.056 0.181 1.222 -20.107 27.397 -48.511
0.42908524999802466 0.056 0.175 1.237 -22.344 26.763 -47.229
0.43590641699847765 0.043 0.162 1.225 -23.931 24.519 -45.435
0.4480603340052767 0.049 0.146 1.198 -25.443 22.626 -43.206
0.4549245840025833 0.042 0.114 1.215 -23.824 21.511 -41.748
0.4673184170096647 0.026 0.124 1.197 -21.802 19.321 -40.115
0.4729137090034783 0.026 0.113 1.178 -21.931 18.702 -39.405
0.48615041699667927 0.032 0.091 1.178 -21.969 19.588 -40.481
0.498288542003138 0.027 0.086 1.158 -21.29 22.542 -42.473
0.5053183340060059 0.019 0.076 1.171 -19.71 24.695 -44.229
0.5173567500023637 0.018 0.088 1.149 -20.206 26.046 -45.412
0.5243615840008715 -0.005 0.077 1.152 -21.015 24.611 -44.061
0.5361192919954192 0.01 0.049 1.142 -19.664 24.588 -44.351
0.5482602090050932 0.015 0.051 1.126 -18.893 25.985 -45.069
0.5551006250025239 0.004 0.049 1.133 -18.405 25.908 -45.565
0.5672260419960367 0.001 0.032 1.14 -15.595 25.145 -45.427
0.5744215840095421 0.007 0.042 1.123 -13.969 24.733 -45.786
0.5864309169992339 0.02 0.053 1.128 -12.595 26.061 -45.794
0.5985463749966584 0.034 0.058 1.146 -11.626 27.389 -45.031
0.6054586249956628 -0.005 0.067 1.172 -12.061 27.336 -44.71
0.617341375007527 -0.012 0.071 1.168 -13.496 26.397 -43.695
0.6243375839985674 -0.01 0.058 1.17 -12.779 25.779 -43.443
0.6361967499979073 -0.023 0.062 1.154 -12.489 24.412 -42.74
0.6482770840084413 -0.014 0.045 1.134 -11.901 24.252 -42.061
0.6552168339985656 -0.005 0.033 1.146 -9.336 25.603 -42.397
0.6673613750026561 -0.02 0.044 1.146 -8.252 27.344 -43.046
0.6743697920028353 -0.038 0.041 1.16 -9.511 27.221 -44.115
0.686433875001967 -0.047 0.029 1.177 -7.611 26.702 -44.359
0.698282500001369 -0.043 0.029 1.177 -6.183 25.534 -45.679
0.7055131250090199 -0.032 0.033 1.176 -5.992 25.16 -46.733
0.7173582090035779 -0.001 0.04 1.181 -4.695 26.718 -47.336
0.724525833997177 0.018 0.047 1.167 -4.237 30.13 -48.443
0.7367119999980787 0.021 0.059 1.168 -5.496 32.527 -48.015
0.7489757919975091 0.023 0.061 1.167 -7.214 33.595 -47.336
0.7559899170009885 0.031 0.051 1.178 -7.748 35.878 -47.359
0.7682563749986002 0.01 0.056 1.2 -6.87 35.885 -47.069
0.7746852919954108 -0.009 0.078 1.189 -8.557 32.473 -44.679
0.787145624999539 -0.005 0.059 1.197 -8.313 29.107 -41.519
0.7928799590008566 0.013 0.048 1.19 -6.893 27.344 -39.595
0.8061175000038929 -0.004 0.059 1.189 -6.008 24.595 -37.962
0.8182756669993978 -0.022 0.06 1.177 -6.481 22.366 -37.26
0.8251743340078974 0.001 0.054 1.177 -7.115 23.061 -38.55
0.8373181670031045 0.006 0.051 1.167 -8.252 25.176 -40.977
0.844322667006054 0.032 0.048 1.163 -9.298 30.405 -44.443
0.8565186670020921 0.04 0.042 1.17 -7.992 34.603 -47.71
0.8686980000056792 0.018 0.058 1.167 -5.519 36.672 -48.565
0.8758795839967206 0.002 0.045 1.175 -2.618 35.985 -48.107
0.8876007500075502 -0.012 0.062 1.168 -1.053 34.58 -47.29
0.895118000000366 -0.007 0.063 1.186 3.069 37.527 -46.489
0.9071657500026049 -0.088 0.085 1.179 -2.664 27.26 -47.298
0.9189776669954881 -0.046 0.081 1.177 -6.29 22.565 -43.038
0.9261383749981178 -0.02 0.049 1.196 -6.794 17.885 -43.366
0.9381579170003533 -0.035 0.094 1.166 -8.656 13.733 -40.824
0.9448518340068404 -0.011 0.077 1.164 -11.87 11.771 -38.198
0.9571226249972824 0.003 0.072 1.158 -15.282 11.191 -37.519
0.9689427499979502 -0.015 0.056 1.142 -17.435 10.977 -36.198
0.9757897920062533 -0.011 0.015 1.137 -17.183 12.038 -36.863
0.9880422499991255 -0.01 0.007 1.096 -17.26 15.908 -39.664
0.9946382920024917 0.006 0.006 1.093 -17.58 21.695 -43.74
1.0069490839960054 0.009 0.008 1.1 -16.618 26.802 -46.183
1.0189437920053024 -0.009 0.02 1.099 -17.031 28.656 -46.954
1.0256659169972409 -0.013 0.016 1.123 -16.74 29.397 -46.924
1.0377448750077747 -0.057 0.017 1.148 -15.351 27.0 -46.344
1.04440270899795 -0.085 0.019 1.154 -14.58 21.145 -43.779
1.0566476250096457 -0.071 0.011 1.153 -13.198 15.649 -41.466
1.0687080839998089 -0.061 -0.015 1.157 -8.458 11.344 -40.351
1.0754587499977788 -0.067 -0.009 1.148 -4.099 8.359 -39.084
1.087757834000513 -0.061 0.011 1.141 -3.649 6.527 -38.985
1.0947579170024255 -0.039 0.02 1.133 -4.565 8.718 -39.595
1.1070257499959553 -0.043 0.013 1.15 -6.198 11.725 -41.351
1.1190242500015302 -0.052 0.021 1.17 -6.74 14.733 -44.252
1.126085541996872 -0.029 0.018 1.176 -7.847 18.099 -46.496
1.1380320000025677 -0.015 0.018 1.17 -9.802 22.466 -48.481
1.1450221670093015 -0.01 0.027 1.168 -12.87 26.13 -49.053
1.157149209000636 -0.034 0.032 1.181 -14.878 26.229 -48.504
1.1690058749954915 -0.054 0.038 1.2 -16.573 23.084 -46.817
1.1760152500064578 -0.054 0.023 1.21 -16.046 20.962 -44.771
1.1878787500027101 -0.044 0.013 1.19 -15.885 19.076 -43.573
1.1945657089963788 -0.04 0.004 1.191 -15.992 17.481 -42.481
1.2066170839971164 -0.052 -0.013 1.2 -14.687 16.015 -41.298
1.2185062089993153 -0.042 -0.017 1.179 -14.046 14.267 -40.84
1.225480459004757 -0.044 -0.033 1.183 -13.641 14.298 -41.473
1.2374313750042347 -0.025 -0.046 1.18 -12.473 15.74 -43.573
1.2441391250031302 -0.025 -0.04 1.175 -11.863 18.008 -44.527
1.2560860000085086 -0.026 -0.042 1.17 -12.115 19.366 -44.328
1.2680551250086864 -0.024 -0.041 1.208 -9.924 21.023 -44.71
1.2748337500088383 -0.022 -0.037 1.19 -9.191 23.664 -45.687
1.2868870840029558 -0.016 -0.022 1.195 -9.824 25.351 -45.763
1.2990588340035174 -0.025 -0.019 1.226 -9.336 25.45 -44.855
1.3059564590075752 -0.059 -0.018 1.222 -9.534 24.389 -43.779
1.3178060840000398 -0.065 -0.008 1.22 -12.176 22.115 -42.695
1.324568416996044 -0.061 -0.04 1.229 -12.733 19.733 -42.13
1.336473167000804 -0.055 -0.04 1.216 -12.87 16.519 -41.244
1.3483297920029145 -0.03 -0.051 1.175 -12.313 16.382 -40.313
1.3552543340047123 -0.031 -0.073 1.17 -10.74 18.473 -41.084
1.3672104590077652 -0.045 -0.065 1.152 -10.702 20.313 -42.855
1.3790335420053452 -0.046 -0.074 1.167 -9.756 21.748 -44.618
1.385893541999394 -0.046 -0.068 1.146 -8.053 24.527 -47.626
1.3981007920083357 -0.022 -0.047 1.124 -9.786 29.198 -51.008
1.404716749995714 -0.015 -0.041 1.138 -11.237 33.26 -54.351
1.4166194590070518 -0.027 -0.017 1.188 -12.382 34.664 -54.534
1.4287397919979412 -0.026 0.005 1.195 -14.481 32.718 -52.183
1.4358891669980949 -0.025 0.003 1.222 -15.832 29.252 -47.824
1.4476894170074956 -0.031 -0.02 1.206 -16.336 24.183 -43.26
1.4543904589954764 -0.023 -0.037 1.174 -16.504 20.336 -39.565
1.466151833999902 -0.021 -0.053 1.141 -16.115 16.924 -36.519
1.4780577920028009 -0.019 -0.075 1.116 -14.992 15.115 -34.076
1.4850017090066103 -0.01 -0.085 1.094 -13.901 16.931 -33.893
1.496885000000475 -0.04 -0.089 1.117 -11.992 20.168 -36.947
1.5087238749983953 -0.072 -0.092 1.12 -9.924 22.061 -41.351
1.5157690420019208 -0.086 -0.09 1.118 -9.061 23.298 -46.076
1.5278363340039505 -0.064 -0.079 1.133 -8.0 25.588 -50.305
1.5346741670073243 -0.027 -0.063 1.145 -7.366 28.313 -53.771
1.5465997919964138 -0.005 -0.026 1.151 -9.321 31.038 -54.954
1.5585481250018347 0.021 -0.016 1.151 -11.985 33.374 -54.321
1.5655292090086732 -0.002 -0.011 1.164 -13.817 33.061 -51.221
1.577387584009557 -0.032 -0.017 1.188 -14.519 29.008 -47.115
1.5842013750079786 -0.044 -0.039 1.194 -13.328 22.519 -42.656
1.5961503340076888 -0.054 -0.052 1.182 -11.573 16.313 -38.794
1.608079584009829 -0.049 -0.067 1.158 -10.252 11.061 -35.695
1.6148230420076288 -0.051 -0.084 1.144 -8.183 6.0 -33.198
1.627237459004391 -0.041 -0.108 1.129 -4.534 2.718 -31.321
1.6389402089989744 -0.032 -0.124 1.104 -0.855 2.542 -31.931
1.6461667090043193 -0.014 -0.115 1.091 0.992 4.977 -33.656
1.658268708997639 0.009 -0.102 1.097 1.076 9.344 -36.466
1.6655975000030594 0.014 -0.072 1.14 2.405 14.42 -39.435
1.6776008750020992 -0.001 -0.044 1.149 2.954 18.122 -40.534
1.6845834170089802 -0.009 -0.023 1.156 1.107 19.771 -40.634
1.6964426250051474 -0.021 -0.015 1.182 -2.649 18.282 -39.84
1.7085495420033112 -0.014 -0.026 1.173 -6.473 17.344 -38.496
1.7154363750014454 -0.007 -0.053 1.166 -7.42 17.931 -37.672
1.7273142500052927 -0.023 -0.071 1.149 -6.718 17.832 -36.351
1.7343637090089032 -0.037 -0.09 1.133 -5.122 17.626 -35.099
1.7461340000008931 -0.042 -0.123 1.15 -2.748 16.298 -34.176
1.7582482500001788 -0.072 -0.112 1.148 1.573 14.382 -33.71
1.7652062920096796 -0.063 -0.115 1.12 4.527 13.87 -33.924
1.7774175420054235 -0.053 -0.1 1.114 3.985 13.893 -34.74
1.7842830419976963 -0.077 -0.083 1.142 1.191 11.275 -35.618
1.7965396670042537 -0.059 -0.073 1.14 -0.878 9.198 -35.771
1.8083457500033546 -0.007 -0.083 1.111 -2.122 10.908 -37.344
1.815537917005713 0.021 -0.077 1.115 -3.573 16.389 -40.344
1.827320124997641 0.015 -0.07 1.144 -3.16 21.053 -41.779
1.8342842499987455 0.002 -0.067 1.126 -2.588 23.985 -41.718
1.8462775420048274 0.002 -0.07 1.146 -3.42 26.321 -41.924
1.8585697500093374 0.0 -0.066 1.154 -3.382 27.145 -41.58
1.8654228750092443 -0.001 -0.062 1.146 -3.084 27.435 -40.42
1.8773713749978924 -0.02 -0.078 1.141 -3.282 26.229 -38.84
1.8842624590033665 -0.043 -0.071 1.155 -3.031 23.405 -36.664
1.8963931250036694 -0.087 -0.07 1.169 -3.504 18.16 -34.206
1.908264459008933 -0.083 -0.075 1.162 -3.45 13.748 -31.733
1.915232166997157 -0.078 -0.089 1.176 -1.145 11.0 -31.519
1.9272924170072656 -0.089 -0.084 1.171 1.275 8.595 -31.542
1.934566709009232 -0.063 -0.089 1.154 3.176 7.427 -32.603
1.9465847090032184 -0.024 -0.088 1.146 3.611 9.267 -34.504
1.9586476670083357 -0.002 -0.077 1.145 3.214 13.947 -36.878
1.9657225420087343 -0.006 -0.072 1.157 1.718 18.038 -38.74
1.9775644170003943 -0.025 -0.062 1.167 -0.076 20.008 -39.122
1.984595709000132 -0.037 -0.055 1.17 -1.397 20.244 -39.29
1.996525084003224 -0.062 -0.035 1.172 -3.87 20.45 -39.389
2.008518834001734 -0.056 -0.063 1.213 -3.908 20.183 -39.855
2.0155461249960354 -0.047 -0.069 1.239 -2.366 19.122 -39.847
2.027314250008203 -0.06 -0.06 1.222 -1.191 17.076 -38.557
2.034140874995501 -0.058 -0.06 1.197 -1.153 15.519 -37.969
2.0462323749961797 -0.045 -0.082 1.177 -0.817 14.893 -37.771
2.058322374999989 -0.058 -0.087 1.189 1.183 13.534 -38.55
2.065244541998254 -0.047 -0.082 1.157 1.603 13.542 -38.779
2.0773226669989526 -0.02 -0.074 1.151 1.267 15.985 -40.763
2.084071834004135 -0.007 -0.071 1.166 2.947 19.603 -44.099
2.0962415840040194 -0.012 -0.062 1.167 3.519 22.74 -47.718
2.108561084009125 0.012 -0.056 1.159 0.496 26.893 -51.153
2.1154240000032587 0.035 -0.048 1.173 -3.336 31.26 -54.298
2.1276072500040755 0.035 -0.046 1.17 -5.282 34.542 -55.672
2.1345100839971565 0.019 -0.038 1.17 -6.267 35.122 -55.237
2.1466308750095777 -0.013 -0.03 1.192 -5.275 33.466 -52.87
2.158533834008267 -0.039 -0.019 1.2 -5.237 29.985 -50.473
2.165330333999009 -0.038 -0.017 1.221 -5.511 24.977 -48.084
2.177425208996283 -0.016 -0.033 1.236 -4.221 21.206 -46.359
2.1843215840053745 -0.002 -0.029 1.205 -3.321 19.496 -45.206
2.1963956670078915 0.007 -0.019 1.202 -4.412 18.458 -43.13
2.2083450840000296 -0.022 -0.005 1.17 -8.145 16.389 -40.267
2.215306459009298 -0.014 -0.035 1.201 -8.153 16.473 -39.573
2.227419250004459 -0.013 -0.056 1.201 -6.855 15.389 -38.832
2.2344566249958007 -0.03 -0.051 1.194 -5.588 13.718 -38.099
2.2462862499960465 -0.024 -0.064 1.177 -5.076 12.321 -37.588
2.2580106670066016 -0.002 -0.073 1.156 -4.878 12.405 -37.527
2.2652351669967175 0.009 -0.079 1.15 -3.366 13.947 -38.42
2.2771018750063377 0.001 -0.088 1.136 -0.634 16.229 -39.328
2.2844442920031724 0.003 -0.11 1.133 2.977 18.588 -39.504
2.296324374998221 0.016 -0.118 1.122 8.573 21.313 -40.137
2.3086496250034543 0.028 -0.124 1.107 16.344 25.985 -40.366
2.315290250000544 0.026 -0.114 1.115 23.969 29.947 -41.092
2.3272900840092916 -0.008 -0.062 1.147 26.107 31.878 -39.763
2.3340224999992643 -0.001 -0.049 1.182 24.916 32.618 -37.282
2.3463080000074115 -0.043 -0.022 1.201 20.023 30.824 -36.55
2.358547499999986 -0.132 0.011 1.189 9.595 19.58 -31.328
2.3654286670061992 -0.104 -0.036 1.222 5.405 13.0 -26.229
2.377525333999074 -0.07 -0.058 1.182 2.58 9.397 -26.954
2.3845621250075055 -0.056 -0.085 1.188 4.802 13.672 -27.168
2.3966245839983458 -0.066 -0.048 1.121 -3.824 8.649 -30.496
2.4084647090057842 -0.047 -0.103 1.158 -5.084 11.893 -31.878
2.415484375000233 -0.01 -0.136 1.147 -0.069 16.015 -37.931
2.4275463340018177 -0.028 -0.095 1.095 1.321 21.71 -42.237
2.435015791998012 -0.024 -0.083 1.111 1.298 26.702 -44.748
2.4467944170028204 -0.031 -0.066 1.133 -0.45 28.87 -47.107
2.4585740420006914 -0.047 -0.056 1.176 -1.305 29.076 -48.145
2.46548216699739 -0.048 -0.051 1.189 -0.183 28.534 -47.611
2.4773293339967495 -0.042 -0.041 1.182 -1.16 26.771 -46.626
2.484311959007755 -0.046 -0.015 1.186 -4.771 25.198 -45.542
2.496384792000754 -0.05 -0.012 1.183 -8.931 23.137 -44.435
2.5082894590013893 -0.047 -0.03 1.209 -9.0 22.237 -43.412
2.5152225839992752 -0.047 -0.043 1.218 -6.87 20.611 -42.58
2.5271714590053307 -0.048 -0.042 1.186 -6.527 19.595 -42.107
