Time AX AY AZ GX GY GZ
0.019636416996945627 0.2 0.157 1.133 -1.573 20.389 -43.466
0.02646933399955742 0.198 0.159 1.142 -1.42 19.282 -43.206
0.038708459003828466 0.201 0.16 1.149 -0.87 18.351 -43.183
0.04601383399858605 0.211 0.165 1.139 -1.137 18.092 -42.885
0.05840504200023133 0.217 0.163 1.142 -1.603 18.817 -43.42
0.0637891250080429 0.217 0.166 1.144 -1.901 20.42 -44.176
0.07694637500389945 0.213 0.168 1.141 -2.42 21.137 -44.16
0.08916183399560396 0.208 0.176 1.156 -3.084 20.031 -43.58
0.09638962500321213 0.202 0.163 1.162 -3.099 18.664 -43.023
0.10838754200085532 0.204 0.17 1.142 -2.985 17.679 -43.115
0.11567295900022145 0.231 0.174 1.131 -3.725 19.069 -43.214
0.12782883399631828 0.244 0.167 1.145 -3.969 21.885 -43.725
0.1399499170074705 0.24 0.165 1.138 -4.099 23.511 -43.458
0.14682445900689345 0.211 0.163 1.141 -3.664 23.55 -43.115
0.15902424999512732 0.187 0.157 1.147 -2.939 20.87 -42.58
0.16616091699688695 0.188 0.157 1.14 -2.282 17.168 -42.382
0.17839679200551473 0.208 0.15 1.147 -1.496 15.908 -42.313
0.18565454200142995 0.223 0.155 1.128 -2.069 17.718 -43.046
0.19756229199992958 0.237 0.167 1.133 -2.977 20.687 -44.023
0.2096981670038076 0.242 0.166 1.136 -3.901 23.733 -44.29
0.21662679199653212 0.216 0.159 1.154 -3.832 23.092 -43.168
0.2287457920028828 0.206 0.148 1.167 -2.092 20.779 -42.115
0.23595441700308584 0.192 0.145 1.154 0.061 17.748 -41.504
0.24842829200497363 0.198 0.152 1.144 0.244 17.069 -41.748
0.2554017920047045 0.209 0.146 1.133 0.321 17.641 -42.435
0.26748758400208317 0.214 0.16 1.137 0.13 18.878 -43.489
0.279774875001749 0.231 0.174 1.14 -1.29 20.916 -43.702
0.28692945900547784 0.213 0.177 1.164 -2.916 22.443 -44.122
0.29899691700120457 0.193 0.172 1.191 -2.58 20.206 -44.168
0.30602116700902116 0.196 0.182 1.208 -1.771 16.786 -43.313
0.3180805840092944 0.216 0.188 1.232 -1.092 15.84 -42.824
0.3252454589965055 0.231 0.202 1.233 -2.405 16.099 -43.115
0.33733000000938773 0.238 0.21 1.229 -5.817 18.832 -43.679
0.3494639999989886 0.243 0.191 1.225 -8.313 22.244 -44.115
0.35663687500345986 0.244 0.175 1.228 -8.511 24.084 -44.0
0.36876887500693556 0.238 0.161 1.219 -8.855 24.344 -43.244
0.3757282500009751 0.242 0.158 1.24 -8.595 23.527 -42.45
0.38793387499754317 0.245 0.15 1.221 -7.282 23.748 -42.679
0.39988087500387337 0.265 0.153 1.202 -6.885 25.924 -42.794
0.4071421249973355 0.255 0.162 1.185 -8.305 28.878 -43.931
0.41925733399693854 0.232 0.159 1.216 -9.435 31.481 -45.397
0.4263878339988878 0.222 0.151 1.245 -8.664 32.252 -45.634
0.4385555420012679 0.189 0.165 1.279 -9.252 26.985 -45.023
0.44551320900791325 0.176 0.171 1.283 -9.565 19.519 -42.252
0.45761679200222716 0.184 0.167 1.27 -10.649 11.435 -39.977
0.46976358399842866 0.217 0.15 1.227 -11.634 9.237 -37.817
0.4765823339985218 0.259 0.119 1.169 -12.947 13.183 -37.374
0.4887235420028446 0.262 0.117 1.147 -15.221 20.351 -38.389
0.49573091699858196 0.232 0.111 1.163 -17.298 27.046 -39.16
0.5078429169952869 0.207 0.108 1.172 -16.679 30.473 -39.931
0.5200002500059782 0.183 0.094 1.182 -13.076 30.87 -40.008
0.5269990000088001 0.155 0.103 1.198 -9.244 27.847 -39.695
0.5390681669960031 0.124 0.12 1.195 -7.664 22.351 -38.969
0.546197834002669 0.128 0.123 1.189 -8.519 17.473 -38.84
0.5583857090095989 0.153 0.119 1.189 -9.466 16.206 -40.58
0.5651950839965139 0.168 0.124 1.189 -10.779 16.992 -42.145
0.5773569169978146 0.194 0.131 1.181 -13.313 20.145 -44.412
0.5894723340024939 0.198 0.124 1.208 -15.183 22.412 -46.344
0.5964226250071079 0.186 0.117 1.219 -14.824 22.084 -47.443
0.6086119999963557 0.181 0.119 1.232 -13.397 17.954 -46.649
0.6153578340017702 0.204 0.123 1.215 -11.885 14.458 -45.023
0.6276302089972887 0.241 0.138 1.218 -10.321 13.947 -43.321
0.6394377090036869 0.27 0.161 1.199 -11.13 16.855 -42.229
0.6466220000002068 0.304 0.168 1.191 -14.298 23.939 -41.45
0.6585326250060461 0.29 0.164 1.209 -17.26 29.458 -40.939
0.66572620900115 0.22 0.167 1.212 -20.748 31.656 -38.611
0.677583249998861 0.194 0.117 1.219 -21.756 31.992 -37.611
0.6896794170024805 0.143 0.097 1.213 -20.947 29.275 -38.198
0.6966283750080038 0.127 0.08 1.206 -19.282 24.664 -38.282
0.7087418750015786 0.144 0.077 1.19 -17.229 21.237 -39.26
0.7156770840083482 0.17 0.066 1.17 -15.107 21.145 -41.053
0.7279125839995686 0.185 0.074 1.155 -12.87 23.015 -43.229
0.7400398750032764 0.198 0.094 1.157 -11.84 25.008 -44.931
0.7468195840046974 0.218 0.106 1.152 -12.092 27.939 -44.603
0.7590493339957902 0.221 0.105 1.167 -12.008 29.847 -45.183
0.7656348339951364 0.189 0.115 1.177 -12.0 29.901 -44.237
0.7779194169997936 0.182 0.127 1.182 -14.008 27.26 -42.786
0.7899855840078089 0.196 0.123 1.2 -15.321 24.672 -40.786
0.796838750000461 0.204 0.112 1.198 -15.336 23.336 -38.893
0.8088875420071417 0.198 0.1 1.149 -16.298 22.725 -38.053
0.8158134170080302 0.207 0.084 1.141 -16.656 24.282 -38.534
0.8280152920051478 0.226 0.068 1.128 -16.534 28.656 -39.977
0.8349511670094216 0.231 0.062 1.099 -16.282 34.87 -42.092
0.8468610840063775 0.222 0.045 1.104 -15.565 40.061 -43.786
0.8590518340060953 0.209 0.048 1.117 -13.863 43.443 -44.282
0.8659095420007361 0.179 0.03 1.1 -11.374 42.924 -43.901
0.8781332920043496 0.148 0.033 1.115 -8.847 38.672 -43.656
0.885193584006629 0.134 0.034 1.134 -5.771 34.595 -42.366
0.8974736250092974 0.134 0.053 1.124 -5.496 29.656 -41.55
0.9096379590046126 0.144 0.06 1.149 -6.29 24.534 -40.328
0.9167683749983553 0.166 0.061 1.162 -5.901 22.626 -39.656
0.9289805840089684 0.195 0.064 1.122 -7.466 24.954 -40.435
0.9356837920058751 0.196 0.067 1.134 -9.321 28.389 -40.87
0.9481274590070825 0.189 0.063 1.142 -10.718 31.916 -41.702
0.9538438750023488 0.176 0.062 1.125 -11.74 33.107 -41.687
0.9671210840024287 0.195 0.052 1.109 -11.55 34.351 -40.817
0.9792470420070458 0.167 0.033 1.119 -8.794 34.679 -40.351
0.9865968340018298 0.128 0.019 1.13 -5.985 32.527 -39.038
0.9985902089974843 0.111 0.007 1.118 -2.382 27.802 -38.214
1.0058293339970987 0.116 0.0 1.101 1.382 24.42 -38.351
1.0179428749979706 0.107 0.009 1.114 3.527 22.0 -39.137
1.0300446250039386 0.117 0.028 1.115 4.092 20.992 -40.573
1.0371726669982309 0.136 0.041 1.104 2.962 22.282 -42.389
1.0495785000093747 0.154 0.038 1.105 1.817 24.916 -43.13
1.0568005000095582 0.153 0.034 1.109 1.366 26.511 -43.267
1.0688279169989983 0.123 0.022 1.124 3.206 26.328 -42.573
1.0759276669996325 0.104 0.021 1.122 6.344 24.389 -42.405
1.0881070839968743 0.101 0.022 1.108 8.771 23.58 -42.595
1.0952125420008088 0.115 0.039 1.129 10.107 23.298 -43.053
1.1075441249995492 0.112 0.049 1.143 11.023 22.748 -43.023
1.119513209006982 0.121 0.066 1.141 10.733 23.443 -43.687
1.1266224999999395 0.122 0.087 1.171 8.153 24.107 -44.985
1.1387438340025255 0.13 0.125 1.175 2.718 25.687 -45.282
1.1459383750043344 0.13 0.101 1.2 -2.069 27.763 -45.244
1.1580668749957113 0.111 0.089 1.199 -3.878 28.359 -45.855
1.1651923750032438 0.093 0.082 1.211 -4.802 26.046 -44.26
1.17739925000933 0.071 0.056 1.213 -3.45 20.656 -42.389
1.1895715840073535 0.058 0.051 1.202 -1.107 15.038 -40.603
1.1967383340088418 0.063 0.05 1.197 1.321 10.145 -41.046
1.2087821250024717 0.098 0.062 1.187 2.634 10.145 -42.489
1.215924083997379 0.141 0.073 1.167 1.962 14.069 -45.137
1.2282645420054905 0.159 0.067 1.18 0.847 20.534 -48.122
1.2353191250003874 0.146 0.074 1.176 -0.802 24.718 -48.985
1.247398167004576 0.124 0.045 1.191 0.191 25.069 -48.366
1.2599429590045474 0.11 0.051 1.218 4.756 20.504 -45.397
1.2666664169955766 0.106 0.066 1.232 10.779 13.191 -40.42
1.2792760840093251 0.107 0.078 1.214 14.672 5.359 -37.504
1.286191792009049 0.132 0.077 1.203 17.588 3.221 -36.107
1.298282208997989 0.17 0.097 1.158 16.305 6.87 -37.863
1.3054727499984438 0.191 0.108 1.159 11.527 13.87 -40.641
1.3176105419988744 0.194 0.117 1.143 4.252 21.099 -43.458
1.3296626670053229 0.187 0.127 1.157 -4.695 27.038 -45.008
1.3366413750045467 0.182 0.118 1.171 -11.58 30.763 -45.336
1.3488349170074798 0.153 0.099 1.212 -13.542 31.267 -44.786
1.3557293750054669 0.123 0.089 1.209 -12.634 28.824 -43.183
1.367812334006885 0.138 0.082 1.21 -11.061 27.649 -42.298
1.3799376249953639 0.144 0.062 1.181 -9.58 28.672 -43.733
1.3872577500005718 0.149 0.064 1.176 -8.458 30.626 -44.618
1.399275709001813 0.147 0.073 1.172 -9.107 30.802 -45.305
1.4059839590045158 0.131 0.075 1.18 -9.763 29.519 -44.504
1.4183384170028148 0.148 0.064 1.18 -8.26 28.626 -43.779
1.4254663750034524 0.142 0.077 1.156 -8.0 27.557 -42.588
1.4376403339992976 0.163 0.069 1.164 -6.603 27.191 -40.786
1.4497379999957047 0.17 0.071 1.154 -5.466 28.405 -39.252
1.4568991249980172 0.146 0.083 1.145 -6.916 28.412 -38.901
1.46898308400705 0.131 0.069 1.169 -6.985 28.382 -38.397
1.475686667006812 0.121 0.068 1.172 -6.496 27.16 -39.153
1.4881288339965977 0.133 0.076 1.141 -7.611 27.656 -38.878
1.4952662919968134 0.135 0.063 1.162 -7.664 29.786 -39.405
1.5073293750028824 0.113 0.057 1.144 -6.809 31.962 -40.252
1.5194974170008209 0.121 0.052 1.137 -6.756 33.802 -41.298
1.5265847499977099 0.123 0.057 1.139 -6.977 35.26 -42.076
1.5388031250040513 0.104 0.064 1.157 -6.588 35.107 -42.237
1.5456410839979071 0.108 0.078 1.152 -7.046 35.092 -41.214
1.557710084001883 0.097 0.079 1.162 -9.061 33.557 -40.969
1.5700574590009637 0.081 0.066 1.163 -10.649 30.832 -40.069
1.5772117919987068 0.095 0.048 1.165 -9.519 28.107 -38.863
1.5892506670061266 0.121 0.057 1.111 -9.924 29.0 -38.679
1.5961603339965222 0.115 0.059 1.119 -12.076 31.779 -38.802
1.6082797499984736 0.103 0.045 1.135 -11.519 33.557 -39.405
1.6151816670026165 0.075 0.051 1.142 -10.405 33.244 -39.802
1.6273710420064162 0.069 0.044 1.175 -9.672 31.901 -40.176
1.6394885839981725 0.071 0.034 1.193 -7.481 30.405 -40.908
1.6466566669987515 0.073 0.045 1.177 -6.74 29.046 -42.42
1.6588419589970727 0.089 0.063 1.157 -9.023 28.74 -42.473
1.665734167007031 0.086 0.06 1.162 -11.397 28.55 -42.183
1.6778300000005402 0.077 0.055 1.162 -11.183 28.824 -42.16
1.6896645840024576 0.063 0.047 1.164 -10.351 27.656 -41.603
1.6968637499958277 0.058 0.037 1.17 -8.214 24.962 -40.328
1.709016499997233 0.069 0.029 1.17 -4.718 22.718 -39.427
1.7161364170024171 0.058 0.031 1.167 -1.763 20.885 -38.718
1.7284517090010922 0.07 0.025 1.179 -0.557 19.198 -37.519
1.7353203749953536 0.049 0.02 1.197 1.832 16.282 -37.321
1.7477602919971105 0.049 0.025 1.182 3.565 13.985 -35.87
1.759757959007402 0.067 0.024 1.172 3.885 12.458 -34.977
1.7668164589995285 0.061 0.027 1.178 4.916 11.641 -33.58
1.779342584006372 0.037 0.019 1.191 7.863 9.076 -31.481
1.7864128340006573 0.044 0.026 1.187 9.687 7.634 -29.55
1.7988122499955352 0.068 0.028 1.193 11.298 8.313 -29.298
1.8057139590091538 0.098 0.038 1.201 13.595 10.458 -31.107
1.8179111250065034 0.118 0.06 1.171 13.16 13.832 -31.969
1.8299704170058249 0.143 0.057 1.171 11.473 19.588 -33.962
1.8370553340064362 0.133 0.074 1.18 10.015 24.756 -35.794
1.849293375009438 0.11 0.075 1.177 7.672 27.817 -36.038
1.8564878339966526 0.089 0.067 1.206 6.527 26.298 -35.466
1.8688121250015683 0.062 0.061 1.227 7.664 22.695 -33.893
1.8759029590000864 0.064 0.06 1.22 9.099 17.458 -32.527
1.8881035420054104 0.05 0.068 1.21 9.046 13.45 -31.534
1.8952007089974359 0.056 0.064 1.223 8.244 10.389 -31.305
1.9075839169963729 0.072 0.054 1.214 7.618 9.779 -30.786
1.9197055420081597 0.088 0.058 1.186 6.611 10.664 -32.008
1.9268081250047544 0.087 0.066 1.168 4.0 13.137 -33.053
1.938950958996429 0.1 0.065 1.181 -0.145 17.359 -35.557
1.9461812500085216 0.102 0.066 1.19 -3.511 20.733 -38.611
1.9582639590080362 0.113 0.063 1.174 -4.809 25.473 -41.84
1.9652052919991547 0.135 0.076 1.148 -5.237 31.26 -44.916
1.9774462089990266 0.146 0.095 1.172 -4.74 36.695 -45.244
1.9894524590054061 0.115 0.099 1.2 -3.122 38.214 -44.267
1.9966579169995384 0.089 0.104 1.218 -1.084 35.267 -41.611
2.008782874996541 0.075 0.102 1.233 -0.527 30.252 -39.115
2.015943792008329 0.066 0.102 1.242 0.145 23.168 -36.634
2.0280879589990946 0.076 0.113 1.22 -0.534 17.031 -35.015
2.035225542000262 0.108 0.114 1.196 -2.351 17.16 -35.336
2.047401458999957 0.13 0.101 1.197 -3.427 21.382 -37.802
2.0596019590011565 0.12 0.1 1.207 -3.527 24.954 -40.321
2.06627500000468 0.125 0.099 1.177 -4.718 28.466 -41.664
2.0785290420026286 0.121 0.072 1.192 -4.947 32.008 -41.954
2.0856706670019776 0.094 0.078 1.203 -3.328 32.748 -40.847
2.0978277920075925 0.043 0.083 1.21 -2.489 29.221 -38.389
2.110026000009384 0.035 0.086 1.211 -1.046 23.168 -36.076
2.1172440000082133 0.051 0.08 1.202 -0.756 18.87 -35.092
2.129295250007999 0.058 0.083 1.203 -0.908 16.214 -34.16
2.136173167004017 0.069 0.088 1.186 -2.71 14.87 -34.076
2.1482756250043167 0.085 0.101 1.19 -5.435 16.511 -35.397
2.1555288749950705 0.089 0.102 1.194 -8.115 20.496 -38.275
2.1677104590053204 0.091 0.109 1.204 -10.435 24.206 -41.817
2.1795907089981483 0.095 0.123 1.205 -13.87 27.656 -44.458
2.186708584005828 0.106 0.12 1.2 -16.817 31.786 -45.725
2.198526749998564 0.112 0.112 1.169 -20.015 35.794 -47.298
2.205700999998953 0.112 0.098 1.162 -22.031 39.649 -48.221
2.2176464590011165 0.088 0.081 1.181 -22.099 40.046 -47.756
2.229795584004023 0.058 0.073 1.183 -20.603 37.626 -45.733
2.236721959008719 0.038 0.059 1.188 -18.313 30.985 -42.389
2.2489232500083745 0.019 0.059 1.196 -16.756 22.878 -38.87
2.255778917009593 0.026 0.036 1.186 -14.901 16.595 -35.626
2.2678644999978133 0.031 0.027 1.181 -12.603 11.87 -34.122
2.2800964170019142 0.043 0.029 1.147 -10.557 9.832 -33.053
2.2871204999973997 0.062 0.02 1.115 -9.16 11.336 -33.832
2.2990441669971915 0.082 0.032 1.066 -11.511 16.336 -36.71
2.305898459002492 0.102 0.035 1.063 -16.069 24.099 -41.481
2.3178923340019537 0.12 0.016 1.072 -18.023 33.053 -47.298
2.3250115840055514 0.112 0.02 1.077 -16.786 38.84 -51.13
2.336853542001336 0.101 0.034 1.082 -16.771 41.679 -52.412
2.3492738339991774 0.1 0.03 1.113 -13.42 43.664 -51.832
2.3561488340055803 0.061 0.037 1.126 -10.542 40.695 -49.931
2.3682741670054384 0.047 0.042 1.14 -7.519 36.023 -46.145
2.3754508340061875 0.055 0.016 1.121 -4.466 33.13 -43.229
2.3876432920078514 0.07 0.006 1.11 -2.107 31.466 -41.733
2.3998043750034412 0.079 0.017 1.12 -2.053 31.893 -40.275
2.4068921669968404 0.048 0.005 1.145 -4.466 32.069 -39.893
2.419035917002475 0.036 0.012 1.151 -7.344 31.214 -39.832
2.4257322089979425 0.027 0.005 1.152 -9.321 30.389 -41.031
2.4379156670038356 0.034 0.01 1.116 -11.321 33.389 -44.328
2.443914292001864 0.03 0.018 1.126 -13.0 37.794 -48.626
2.4571639589994447 -0.01 0.032 1.157 -14.038 39.214 -51.672
2.4690680420026183 -0.009 0.032 1.165 -14.557 37.405 -53.275
2.4760165420011617 0.007 0.026 1.173 -13.427 35.947 -52.55
2.4880966670025373 0.023 0.017 1.176 -10.84 32.573 -50.695
2.495213000001968 0.007 0.029 1.184 -6.542 28.336 -46.015
2.507159375003539 -0.006 0.063 1.177 -6.412 21.969 -39.969
2.519343417006894 0.001 0.057 1.177 -9.557 17.969 -35.443
2.5265424999961397 0.001 0.024 1.187 -10.718 14.763 -33.45
