Time AX AY AZ GX GY GZ
0.020055917000000534 -0.012 -0.295 0.973 0.405 -0.802 -1.237
0.02705041700000166 -0.003 -0.302 0.971 -1.084 -2.031 -1.702
0.03919774999999959 -0.01 -0.302 0.974 -2.397 -2.679 -1.489
0.05166837500000199 -0.008 -0.289 0.954 -0.565 -2.221 -1.031
0.05870762500000026 -0.006 -0.286 0.965 0.893 -1.626 -0.824
0.07112895799999919 -0.01 -0.288 0.96 1.344 0.42 -0.496
0.07856037500000213 -0.012 -0.291 0.966 2.084 1.618 -0.198
0.09094679200000044 -0.003 -0.28 0.959 3.137 3.076 0.168
0.0983334169999992 0.001 -0.286 0.946 2.351 1.87 0.29
0.11111379200000115 -0.012 -0.29 0.96 1.496 1.649 0.069
0.11841591700000009 -0.006 -0.296 0.952 1.122 1.16 -0.328
0.13058887500000083 -0.004 -0.295 0.942 -0.198 -0.55 -0.595
0.13782670800000218 -0.008 -0.291 0.951 -0.305 -1.412 -0.588
0.14987337500000208 -0.002 -0.296 0.948 -0.374 -1.954 -0.756
0.15722883300000134 -0.011 -0.299 0.95 -0.176 -2.328 -1.153
0.16951445800000187 -0.005 -0.291 0.96 1.244 -0.695 -1.0
0.1817807920000014 -0.002 -0.286 0.956 1.985 1.656 -0.168
0.18924383300000258 0.0 -0.29 0.956 2.168 1.725 -0.534
0.2015283330000024 -0.007 -0.3 0.948 2.237 1.519 -1.008
0.2088411249999993 -0.006 -0.295 0.951 -0.687 1.511 -0.427
0.22109716699999993 -0.008 -0.291 0.931 -1.985 1.481 -0.031
0.22841666700000118 -0.008 -0.281 0.914 -1.534 1.427 -0.435
0.24066604200000086 -0.014 -0.289 0.919 -0.916 2.382 -0.145
0.2479027500000015 -0.015 -0.278 0.918 -0.443 3.756 0.519
0.2601679170000004 -0.006 -0.279 0.935 -0.672 4.298 0.626
0.26783083300000143 -0.011 -0.274 0.928 0.733 4.153 0.626
0.27998374999999953 -0.01 -0.268 0.931 -1.786 3.214 -1.282
0.2872958330000017 -0.007 -0.265 0.933 -4.786 3.824 -1.809
0.2996086670000011 -0.013 -0.274 0.937 -5.145 3.527 -3.107
0.3117122919999993 -0.001 -0.299 0.953 -5.763 2.023 -4.939
0.31899266699999984 -0.002 -0.294 0.972 -5.458 0.878 -4.702
0.33100004199999944 -0.009 -0.305 1.008 -5.702 -0.618 -3.916
0.3385994580000009 -0.014 -0.29 1.025 -7.237 0.008 -2.679
0.350593583000002 -0.005 -0.278 1.059 -9.153 -0.969 -3.641
0.3578694579999997 -0.032 -0.257 1.116 -10.046 -0.412 -2.099
0.3701437080000005 -0.055 -0.281 1.249 -6.481 5.397 7.756
0.37741954200000194 -0.031 -0.275 1.265 -7.382 11.229 5.908
0.389699083 -0.016 -0.251 1.294 -7.802 12.901 6.885
0.4016919580000007 0.006 -0.255 1.309 -12.061 11.298 7.168
0.4089777080000019 0.008 -0.378 1.392 -33.71 -10.298 -2.076
0.4211088330000017 -0.001 -0.355 1.429 -45.763 -21.137 -6.069
0.42799258300000176 -0.014 -0.349 1.434 -42.214 -13.198 2.26
0.4402643750000017 -0.041 -0.281 1.469 -36.321 -4.374 7.313
0.4473062920000004 -0.008 -0.394 1.511 -24.817 3.908 13.527
0.4594904580000012 -0.007 -0.404 1.587 -19.328 6.87 15.725
0.47158816700000017 -0.002 -0.344 1.564 -16.504 9.947 12.588
0.47893954200000266 0.092 -0.208 1.429 -14.267 8.137 3.351
0.4911139999999996 0.092 -0.176 1.354 -16.076 -0.328 -7.45
0.4981729580000014 0.086 -0.131 1.276 -14.916 -11.87 -18.221
0.5104118750000026 0.078 -0.198 1.272 -10.573 -17.611 -19.618
0.5176240420000013 0.051 -0.321 1.365 -0.954 -10.389 -10.557
0.5298693330000006 -0.036 -0.392 1.406 7.947 5.84 7.725
0.537392208 0.007 -0.354 1.345 11.779 22.756 21.443
0.5494800830000024 0.022 -0.425 1.292 11.939 24.618 26.389
0.5616903330000014 0.023 -0.407 1.282 12.45 16.229 23.893
0.5692338750000019 0.002 -0.408 1.238 4.55 6.565 15.389
0.5814278749999993 -0.008 -0.378 1.192 0.511 -1.427 6.672
0.5887341670000019 -0.009 -0.373 1.134 -6.053 -13.771 -6.962
0.6005487920000014 -0.005 -0.425 1.118 -11.26 -24.695 -16.962
0.607623083 -0.04 -0.5 1.102 -1.87 -29.214 -13.969
0.6196222500000026 -0.005 -0.465 1.174 1.924 -26.351 -14.397
0.6257297080000015 -0.058 -0.487 1.184 4.183 -15.58 -1.977
0.6391986250000024 -0.02 -0.467 1.104 11.237 -9.26 4.26
0.65119975 -0.001 -0.509 1.07 14.153 -12.076 5.427
0.6584779170000026 -0.005 -0.48 1.035 15.305 -16.275 3.206
0.6707495419999994 0.036 -0.455 0.95 17.58 -19.481 3.061
0.6781186249999998 0.015 -0.415 0.997 12.809 -22.992 -2.481
0.6900675830000012 0.016 -0.438 0.961 12.397 -26.191 -6.969
0.6973502499999995 -0.066 -0.444 1.027 21.061 -25.038 -17.573
0.7092008330000006 -0.019 -0.465 0.995 22.061 -17.153 -19.359
0.721278250000001 -0.022 -0.442 0.982 18.397 -7.87 -15.13
0.7287839170000012 -0.038 -0.476 0.985 22.885 3.397 -2.153
0.7410215000000022 -0.021 -0.503 0.927 33.466 3.29 2.359
0.7482611670000026 -0.025 -0.469 0.931 40.573 0.466 6.527
0.7605153750000007 -0.014 -0.416 0.888 46.718 -2.832 9.702
0.7678244579999998 -0.006 -0.394 0.832 56.58 -7.137 5.992
0.7800896670000022 0.019 -0.312 0.782 58.328 -9.847 -1.008
0.7873568750000004 0.01 -0.302 0.776 59.504 -9.748 -8.626
0.7994410830000014 -0.019 -0.371 0.832 64.214 -8.473 -12.053
0.8114279579999994 -0.031 -0.39 0.908 66.817 -8.366 -12.061
0.8187802079999997 -0.036 -0.365 0.903 66.435 -7.374 -11.534
0.8307892500000023 -0.04 -0.329 0.875 67.176 -3.435 -12.092
0.8380467500000002 0.013 -0.237 0.836 60.145 -7.565 -14.771
0.8500788330000013 0.031 -0.202 0.78 48.687 -14.374 -15.977
0.857357167 0.036 -0.156 0.73 41.809 -25.718 -24.069
0.8694622500000015 0.018 -0.155 0.746 34.771 -32.344 -27.58
0.8814745419999994 0.037 -0.187 0.781 28.611 -28.473 -21.496
0.8886068750000007 0.006 -0.208 0.846 21.061 -23.847 -16.603
0.9008294170000006 0.022 -0.196 0.825 15.176 -11.412 -4.168
0.9081794579999993 0.028 -0.201 0.833 15.214 -2.626 6.611
0.9205705420000001 0.052 -0.146 0.788 17.084 1.84 9.298
0.9278200420000005 0.066 -0.104 0.782 14.847 -0.397 8.344
0.9400569169999997 0.068 -0.088 0.756 14.42 -8.099 3.962
0.9475900830000015 0.059 -0.079 0.764 19.588 -12.351 0.939
0.9596095420000026 0.051 -0.069 0.787 14.992 -13.519 3.557
0.9657085000000016 0.012 -0.152 0.822 15.282 -17.321 -1.0
0.979156875000001 0.033 -0.122 0.819 14.702 -21.168 -1.74
0.9914317080000004 0.031 -0.129 0.828 4.305 -20.817 0.649
0.9985275420000015 0.036 -0.145 0.832 -2.939 -12.008 4.977
1.0110602919999998 0.037 -0.168 0.826 2.031 -6.534 5.634
1.0181757080000011 0.04 -0.203 0.876 3.634 -1.443 8.496
1.030935417000002 0.064 -0.169 0.821 -6.038 2.786 9.221
1.0380122080000014 0.049 -0.187 0.832 -11.366 -2.443 5.771
1.0504301670000018 0.069 -0.218 0.821 -8.588 -12.664 8.298
1.057383625 0.053 -0.2 0.838 -7.206 -17.916 10.427
1.0696472499999992 0.032 -0.242 0.866 0.237 -12.458 13.573
1.0768674170000025 0.049 -0.241 0.883 4.58 -4.794 19.603
1.089433500000002 0.057 -0.249 0.875 6.595 -4.603 19.107
1.0949471670000008 0.071 -0.217 0.848 13.137 -8.466 13.038
1.108912625000002 0.094 -0.198 0.856 15.412 -6.351 12.771
1.1213875000000009 0.093 -0.221 0.845 16.008 -6.466 7.489
1.128679708 0.072 -0.17 0.861 11.542 0.473 9.542
1.1414072080000004 0.06 -0.189 0.877 8.634 5.015 7.947
1.1488231249999998 0.081 -0.119 0.899 -1.702 9.191 5.321
1.1611716250000015 0.077 -0.162 0.885 -0.473 4.855 4.061
1.1685262079999994 0.082 -0.155 0.921 11.0 -4.802 2.405
1.1809667499999996 0.075 -0.178 0.936 22.412 2.038 6.618
1.188675583000002 0.071 -0.148 0.906 25.954 6.847 9.977
1.2007402500000026 0.082 -0.153 0.884 27.893 2.603 8.313
1.208378542000002 0.09 -0.145 0.909 27.328 4.878 11.031
1.2207044580000002 0.085 -0.183 0.942 24.603 6.481 10.412
1.227908333000002 0.084 -0.153 0.962 21.443 11.351 12.611
1.2401910830000027 0.076 -0.152 0.914 15.779 14.282 14.473
1.2474890420000015 0.078 -0.145 0.871 11.985 15.84 16.481
1.2599011670000024 0.088 -0.153 0.849 6.977 9.779 10.16
1.267352625000001 0.082 -0.1 0.876 5.405 2.969 4.359
1.2796568330000007 0.076 -0.105 0.909 5.87 -2.13 -1.359
1.285517542000001 0.118 -0.113 0.93 15.435 -2.145 -6.145
1.2995357080000005 0.095 -0.104 0.994 25.695 2.504 6.061
1.3114304580000002 0.078 -0.118 0.957 36.901 16.435 14.885
1.3189508330000024 0.062 -0.133 0.958 40.344 23.153 19.847
1.3309822920000016 0.082 -0.089 0.933 28.725 22.733 20.534
1.3385346250000012 0.086 -0.065 0.894 19.29 18.099 17.87
1.3507523750000026 0.08 -0.038 0.859 18.405 7.466 7.618
1.3583095420000006 0.087 -0.062 0.874 19.061 2.115 2.023
1.3705297499999993 0.091 -0.036 0.893 10.893 0.053 1.053
1.3780442080000022 0.08 -0.013 0.878 6.733 -3.244 -2.702
1.390316833 0.063 -0.015 0.885 4.275 -6.145 -3.214
1.3978142079999998 0.043 -0.047 0.898 1.107 -6.298 -2.092
1.4100784170000011 0.035 -0.048 0.894 -2.962 -2.863 2.023
1.4175842500000009 0.032 -0.063 0.894 2.771 1.198 3.0
1.4300701670000002 0.062 -0.049 0.867 3.176 3.802 6.092
1.4376317080000014 0.06 -0.036 0.85 1.672 -1.863 1.198
1.4498506669999998 0.06 -0.052 0.852 6.473 -7.115 -7.374
1.4572430830000016 0.059 -0.034 0.861 7.817 -9.16 -10.565
1.4691615830000018 0.061 -0.019 0.836 5.786 -10.389 -13.74
1.4814384999999994 0.052 -0.051 0.837 3.832 -16.229 -15.084
1.4887164580000025 0.035 -0.062 0.845 0.748 -15.847 -15.046
1.5007378750000022 0.029 -0.076 0.85 -4.534 -10.763 -7.092
1.5079990000000016 0.032 -0.086 0.823 -3.939 -4.244 -0.427
1.5203267080000025 0.047 -0.064 0.819 -1.374 -0.611 3.374
1.5278694170000016 0.076 -0.085 0.806 4.42 -2.511 4.221
1.5403625420000004 0.073 -0.065 0.818 7.443 -3.42 2.74
1.5478711670000003 0.058 -0.047 0.811 7.763 -0.687 4.0
1.5600675420000023 0.049 -0.016 0.825 6.771 -0.855 2.511
1.5675707920000015 0.051 0.035 0.815 5.473 -2.183 -0.321
1.5798224170000026 0.066 0.039 0.801 1.076 -3.947 -2.641
1.5873408750000024 0.066 0.011 0.806 1.099 -8.55 -5.427
1.5996074580000013 0.064 -0.025 0.837 0.511 -11.0 -5.237
1.6054729170000002 0.077 -0.027 0.848 -2.924 -9.145 -2.962
1.6191375830000005 0.08 -0.031 0.835 -5.076 -9.405 -4.405
1.631480542000002 0.077 -0.028 0.864 -3.519 -9.84 -2.977
1.638974042000001 0.079 -0.032 0.866 1.893 -3.649 1.55
1.6511987500000025 0.092 -0.03 0.906 4.504 -0.16 2.695
1.6586859169999997 0.089 -0.03 0.916 1.893 0.977 4.534
1.6711997919999995 0.085 -0.024 0.935 2.015 2.733 4.924
1.6786929169999993 0.088 -0.037 0.942 -2.458 6.275 6.954
1.690948500000001 0.089 -0.047 0.948 -1.824 5.588 4.321
1.6987052919999996 0.09 -0.035 0.953 3.466 2.176 0.26
1.7109819580000014 0.094 -0.033 0.961 6.916 -0.053 -2.947
1.7183596670000014 0.106 -0.022 0.981 11.0 1.237 -4.511
1.7307959580000016 0.107 -0.035 1.0 8.053 3.298 -5.344
1.7383000420000023 0.106 -0.031 0.969 9.214 9.061 -2.145
1.750513625 0.09 -0.063 1.019 7.992 8.229 0.855
1.758309833000002 0.09 -0.058 1.026 2.878 8.947 3.16
1.770512 0.086 -0.054 1.035 0.924 8.374 2.557
1.7780018330000011 0.085 -0.002 1.033 -1.893 7.137 4.221
1.7905367080000012 0.075 0.008 1.031 -3.344 6.893 5.038
1.7980426250000008 0.076 -0.007 1.021 -6.656 6.702 4.496
1.8103148329999996 0.083 -0.027 1.021 -7.023 7.221 2.649
1.817812 0.069 -0.035 1.013 -3.931 6.924 0.916
1.8303865829999992 0.064 -0.039 1.006 3.206 6.122 -2.481
1.8378448750000018 0.063 -0.039 0.988 5.733 0.229 -6.573
1.8501009580000023 0.061 -0.07 0.989 0.137 -4.962 -7.511
1.857346917000001 0.056 -0.08 1.004 -2.534 -2.29 -6.588
1.8696386670000003 0.062 -0.073 0.999 -4.336 1.168 -2.237
1.8771249579999996 0.062 -0.07 0.966 -5.046 5.519 2.847
1.8894452500000014 0.066 -0.089 0.989 -3.458 5.183 3.718
1.8954708750000009 0.069 -0.096 0.991 -1.214 7.542 5.069
1.9094450420000015 0.062 -0.119 1.005 1.748 6.435 5.74
1.9152257080000012 0.071 -0.107 0.975 1.229 8.824 8.672
1.9294505000000015 0.059 -0.086 0.981 1.634 8.26 9.817
1.9416315829999995 0.058 -0.043 0.971 -0.069 5.893 10.817
1.949199625000002 0.058 -0.022 0.958 2.008 4.695 9.252
1.9618436250000002 0.047 -0.01 0.966 3.45 4.664 8.344
1.9691955830000012 0.057 -0.009 0.975 6.679 4.702 3.359
1.981621833000002 0.059 0.004 0.988 4.237 3.71 3.061
1.9894494169999994 0.061 -0.01 0.985 5.267 3.733 1.084
2.0016307080000004 0.065 -0.03 0.989 1.618 2.496 1.206
