Time AX AY AZ GX GY GZ
0.014455208000015318 -0.055 -0.197 0.966 -2.725 -1.084 -0.115
0.02659670799999958 -0.052 -0.206 0.969 -3.489 -2.603 -0.733
0.03879620800000794 -0.049 -0.199 0.96 -3.229 -2.969 -0.16
0.04576554199999805 -0.053 -0.191 0.966 -2.931 -1.557 0.641
0.05798995800000739 -0.046 -0.189 0.967 -1.237 0.305 1.038
0.06540462500001354 -0.052 -0.198 0.974 -0.481 1.145 1.115
0.0774542500000166 -0.05 -0.188 0.995 -0.168 1.336 0.618
0.0849086250000255 -0.052 -0.203 0.983 0.344 1.42 0.099
0.09705970800001751 -0.049 -0.209 0.986 -0.168 0.183 -0.802
0.10427270800002475 -0.055 -0.209 0.994 -0.252 0.344 -1.214
0.11671695800001203 -0.058 -0.223 0.994 0.252 0.725 -1.0
0.12897879199999807 -0.059 -0.219 0.979 1.183 0.664 -0.008
0.13629854200002 -0.053 -0.198 0.983 -0.786 0.275 -0.534
0.14828049999999848 -0.055 -0.202 0.984 -0.588 0.87 -0.557
0.15560779200001207 -0.041 -0.199 0.976 -1.412 0.298 -0.359
0.16761262500000385 -0.045 -0.201 0.978 -1.55 0.863 -0.573
0.17487970800002017 -0.053 -0.202 0.97 -0.634 1.275 -0.397
0.18721658300000854 -0.048 -0.2 0.976 -0.084 1.939 -0.412
0.19445929200000478 -0.055 -0.197 0.978 -0.511 2.603 -0.405
0.20650804200002426 -0.06 -0.197 0.981 -0.969 2.618 -0.282
0.21848275000002104 -0.054 -0.193 0.976 -1.351 1.679 -0.298
0.2257866670000226 -0.053 -0.188 0.965 -3.031 1.313 -0.649
0.23808387500000094 -0.056 -0.194 0.964 -2.191 1.252 -1.313
0.24538325000000327 -0.054 -0.211 0.987 -1.076 2.321 -1.099
0.25736958300001334 -0.063 -0.219 0.98 -0.878 2.466 -0.725
0.26472108300001196 -0.059 -0.209 0.978 -1.954 1.947 -0.511
0.27672612500001037 -0.052 -0.182 0.956 -4.504 1.809 -1.603
0.28897579200000223 -0.055 -0.196 0.962 -6.443 0.092 -2.191
0.2961522080000236 -0.056 -0.218 0.99 -6.351 -1.779 -2.481
0.3080807500000162 -0.069 -0.235 1.006 -6.458 -1.397 -1.405
0.3156395830000065 -0.064 -0.231 1.005 -5.893 1.359 0.412
0.3276114580000069 -0.066 -0.23 1.002 -3.511 3.603 0.42
0.334937750000023 -0.039 -0.199 0.98 -6.74 1.916 -2.855
0.3469195000000127 -0.04 -0.162 0.949 -12.931 1.412 -6.656
0.3589876250000259 -0.046 -0.185 1.005 -17.16 4.176 -6.084
0.3662799580000069 -0.041 -0.205 1.025 -21.328 4.908 -5.687
0.37830195800000865 -0.039 -0.207 1.026 -25.313 2.053 -7.267
0.3856231250000235 -0.045 -0.215 1.024 -23.336 2.137 -7.718
0.39761854200000357 -0.036 -0.247 1.03 -16.496 5.458 -2.153
0.4047070000000019 -0.098 -0.284 1.106 -10.076 0.969 -0.939
0.41695441699999947 -0.115 -0.285 1.138 -5.588 7.878 -2.534
0.4289769580000211 -0.12 -0.309 1.17 -0.634 9.641 -0.405
0.43650879200001214 -0.118 -0.284 1.193 2.275 9.267 1.092
0.4487427500000081 -0.115 -0.257 1.173 1.221 7.817 1.672
0.4560283330000061 -0.103 -0.229 1.16 -1.679 2.763 0.466
0.4680767500000229 -0.092 -0.222 1.145 -3.145 -2.748 -3.053
0.4753615420000017 -0.08 -0.202 1.123 -4.244 -5.351 -6.634
0.4873969170000123 -0.069 -0.188 1.114 -5.023 -5.802 -8.473
0.4945074580000153 -0.073 -0.259 1.156 -0.466 -6.992 -8.275
0.5067527920000146 -0.074 -0.247 1.181 5.878 -5.565 -8.565
0.5187687080000103 -0.076 -0.258 1.219 8.847 -3.214 -4.855
0.5260240000000067 -0.075 -0.269 1.234 4.618 -1.641 1.382
0.5382573750000006 -0.087 -0.257 1.232 6.42 0.13 4.84
0.5458365830000105 -0.065 -0.232 1.226 6.008 2.695 7.038
0.5580688330000214 -0.047 -0.183 1.152 6.076 2.786 6.656
0.5654657500000155 -0.04 -0.149 1.105 4.916 0.099 0.931
0.5775298750000104 -0.028 -0.14 1.075 7.504 -2.351 -8.053
0.5845323329999985 -0.08 -0.11 1.116 9.374 -2.176 -16.42
0.5964882500000215 -0.078 -0.225 1.118 15.191 -5.29 -16.733
0.6086911250000071 -0.077 -0.319 1.192 14.046 -10.267 -15.725
0.6155312500000036 -0.095 -0.332 1.207 6.244 -12.107 -9.863
0.628085542000008 -0.089 -0.316 1.213 5.679 -6.656 -1.992
0.6353497500000174 -0.088 -0.314 1.217 9.29 -1.626 3.504
0.6476150420000124 -0.081 -0.256 1.19 9.137 -1.504 4.496
0.6549186250000218 -0.029 -0.172 1.118 2.305 -5.756 1.42
0.6669441670000253 0.001 -0.144 1.072 -0.099 -14.382 -3.099
0.6789658330000066 0.016 -0.12 1.041 0.076 -20.366 -10.695
0.686275500000022 0.029 -0.116 1.039 1.282 -23.664 -18.511
0.6980532500000152 0.023 -0.134 1.027 -5.008 -22.344 -19.519
0.7053571250000061 0.02 -0.261 1.099 -3.832 -22.84 -20.504
0.7172215830000255 -0.016 -0.354 1.195 -6.519 -22.107 -16.748
0.7230922920000182 -0.046 -0.356 1.214 -3.534 -14.427 -8.534
0.7364786670000001 -0.047 -0.346 1.184 -0.122 -4.603 1.802
0.7487445420000256 -0.023 -0.27 1.128 0.679 1.527 5.351
0.7560544580000226 -0.011 -0.224 1.071 -0.122 1.29 7.061
0.768066417 -0.006 -0.175 1.035 -5.84 -4.504 5.55
0.7755669580000131 0.015 -0.164 0.994 -7.947 -6.611 3.336
0.7874085420000085 -0.003 -0.193 0.994 -10.603 -12.298 -0.901
0.7945715000000177 -0.025 -0.254 1.044 -9.031 -13.267 -3.321
0.806517542000023 -0.029 -0.292 1.044 -4.305 -14.137 -2.87
0.8185060000000135 -0.041 -0.373 1.102 -0.252 -11.626 -1.176
0.8258533329999977 -0.046 -0.326 1.064 1.763 -6.947 7.26
0.8381287920000204 -0.038 -0.311 1.02 1.565 -3.0 8.206
0.8453712499999995 0.026 -0.254 0.996 -4.534 -2.679 10.939
0.8573954580000134 -0.021 -0.204 0.934 -7.16 1.084 11.496
0.8647874580000234 -0.03 -0.217 0.93 -5.817 -3.107 10.29
0.8767475420000039 -0.025 -0.216 0.927 -2.725 -2.427 9.237
0.8887427920000164 -0.017 -0.225 0.93 -1.107 -3.947 8.916
0.8963108330000011 -0.03 -0.27 0.946 1.534 -7.794 9.756
0.9083355830000244 -0.04 -0.279 0.964 9.672 -7.145 10.511
0.9155947500000252 -0.029 -0.311 0.992 18.824 -5.527 13.122
0.9276833330000045 -0.023 -0.292 0.973 19.71 -4.878 14.771
0.9347044579999988 -0.006 -0.218 0.902 14.382 -5.244 14.137
0.9470611250000047 0.006 -0.19 0.915 12.267 -3.168 13.794
0.9590160000000196 0.018 -0.175 0.873 13.366 -0.458 13.26
0.9662700420000192 0.021 -0.201 0.877 13.977 0.038 10.763
0.9785204580000197 0.005 -0.204 0.891 19.626 -2.328 6.901
0.985851083 0.009 -0.211 0.917 18.664 -2.328 4.145
0.998082457999999 0.006 -0.241 0.948 12.695 -5.137 3.16
1.005108750000005 -0.006 -0.236 0.941 9.847 -7.366 3.87
1.0174744170000167 -0.026 -0.289 0.94 14.718 -9.473 5.145
1.0244387500000016 -0.022 -0.24 0.947 21.779 -9.443 5.412
1.0366903330000241 -0.0 -0.218 0.904 18.725 -6.847 6.832
1.0489673330000073 -0.005 -0.191 0.88 17.214 -7.053 7.527
1.0559542080000028 -0.018 -0.169 0.863 17.435 -9.336 4.321
1.0684566670000208 -0.01 -0.16 0.851 17.885 -8.947 0.42
1.0754441670000006 0.009 -0.132 0.865 18.214 -9.321 -2.603
1.0877415420000034 0.008 -0.156 0.913 19.206 -12.817 -4.992
1.0944876249999993 0.015 -0.16 0.923 19.191 -10.008 -4.55
1.106733625000004 -0.014 -0.23 0.956 19.626 -11.534 -1.069
1.118973000000011 -0.017 -0.169 0.977 21.802 -7.908 -2.275
1.1260135830000024 0.007 -0.201 0.971 18.366 -7.023 -0.756
1.1386007920000054 0.025 -0.169 0.941 15.74 -3.237 0.672
1.145578167000025 0.02 -0.148 0.909 14.611 -2.298 1.206
1.1580072920000077 0.023 -0.148 0.914 14.832 2.29 0.71
1.1653418330000136 0.014 -0.136 0.935 14.397 1.626 2.695
1.1777866250000102 0.029 -0.101 0.959 9.557 3.099 8.977
1.185172792000003 0.006 -0.19 0.948 10.084 -1.076 4.626
1.1974309170000197 0.005 -0.166 0.964 10.931 -0.748 5.511
1.2046815830000241 0.023 -0.162 0.938 10.969 -0.511 6.519
1.2169402920000039 0.044 -0.147 0.935 11.511 -0.405 5.122
1.2244582920000084 0.055 -0.126 0.907 13.527 1.679 1.885
1.2367256670000017 0.039 -0.121 0.921 15.198 2.954 1.084
1.2487534580000101 0.024 -0.095 0.936 14.031 -0.076 0.573
1.2560060830000168 0.018 -0.087 0.897 15.534 -1.191 -1.718
1.2682935420000092 0.025 -0.067 0.905 17.046 -0.595 -7.305
1.275618250000008 0.021 -0.05 0.9 18.618 -1.656 -7.42
1.287621458000018 0.024 -0.042 0.931 18.336 -3.008 -11.687
1.2950400000000002 0.017 -0.056 0.935 15.954 -4.176 -9.786
1.3070574580000027 -0.015 -0.108 0.954 11.977 -3.374 0.0
1.3189936670000009 0.005 -0.107 0.953 14.298 -3.458 -1.527
1.3264872080000032 0.021 -0.124 0.945 9.672 -1.359 2.282
1.338731375000009 0.024 -0.103 0.927 3.527 -1.061 8.458
1.346029833000017 0.008 -0.113 0.931 -0.565 0.42 13.427
1.358292208000023 0.004 -0.103 0.927 -1.42 1.099 15.649
1.3655780420000099 0.004 -0.087 0.921 -4.0 -2.145 14.336
1.3776306250000232 -0.006 -0.101 0.912 -1.702 -5.13 11.137
1.3849008330000174 -0.001 -0.115 0.936 1.405 -6.573 9.687
1.3971690000000194 0.001 -0.121 0.927 5.115 -7.237 7.985
1.4047292080000204 0.003 -0.114 0.939 7.802 -8.26 7.313
1.4169335830000023 0.006 -0.124 0.93 6.176 -9.511 5.206
1.4245170000000087 0.007 -0.099 0.939 6.641 -8.87 4.313
1.4367280000000164 0.013 -0.12 0.964 5.443 -6.244 7.176
1.4490121670000065 0.004 -0.119 0.964 5.519 -3.053 9.069
1.4561033749999979 0.014 -0.119 0.975 4.916 -1.511 11.847
1.4685518750000028 0.001 -0.118 0.965 8.519 -2.366 12.634
1.4758239580000065 0.005 -0.095 0.982 11.405 -4.344 11.901
1.4878377080000007 0.007 -0.073 0.943 11.725 -6.107 8.244
1.4952042080000183 -0.006 -0.072 0.947 12.992 -7.282 5.023
1.5074250420000226 0.014 -0.073 0.955 11.893 -8.466 1.26
1.5147001250000187 0.024 -0.093 0.989 11.817 -10.374 -1.58
1.526732542000019 0.03 -0.072 0.992 9.679 -12.099 -2.74
1.5387409580000053 0.04 -0.074 0.965 12.023 -13.847 -5.267
1.5460497500000088 0.037 -0.075 0.974 12.275 -14.115 -4.55
1.5582175830000153 0.042 -0.083 0.964 15.656 -11.55 -3.489
1.565400875000023 0.052 -0.093 0.959 15.878 -9.076 0.321
1.577631542000006 0.044 -0.123 0.961 17.557 -6.962 2.031
1.584939583000022 0.059 -0.117 0.987 17.023 -3.809 5.313
1.5971816250000188 0.056 -0.109 1.015 16.305 -0.901 9.328
1.6045037920000027 0.052 -0.096 0.993 15.466 0.191 9.298
1.6166903330000082 0.066 -0.047 0.959 15.55 1.45 9.443
1.6289827920000164 0.075 -0.041 0.938 16.649 1.473 6.641
1.636522083000017 0.076 -0.053 0.925 16.924 -0.947 1.389
1.6485205000000178 0.08 -0.046 0.942 14.0 -4.924 -5.389
1.6558430830000077 0.071 -0.079 0.936 14.092 -9.023 -10.748
1.667859333000024 0.056 -0.068 0.959 15.412 -8.496 -11.603
1.6748697499999992 0.074 -0.072 0.963 15.725 -8.702 -10.084
1.6871645000000228 0.08 -0.057 0.947 13.107 -5.901 -6.947
1.6944307079999987 0.069 -0.055 0.958 11.71 -3.382 -5.214
1.7067274170000246 0.065 -0.066 0.972 8.565 0.031 -2.496
1.7189649170000223 0.06 -0.076 0.976 11.023 3.481 0.802
1.7262755830000174 0.049 -0.066 0.981 13.901 6.519 3.534
1.7384993750000035 0.055 -0.045 0.978 18.16 7.489 3.733
1.7460342920000187 0.058 -0.013 0.937 19.87 7.237 2.153
1.7583058750000191 0.06 0.009 0.908 21.847 6.664 -0.847
1.7658541250000042 0.048 0.008 0.884 19.748 2.771 -5.0
1.7778122920000214 0.035 0.002 0.895 17.229 -1.351 -8.931
1.7851440830000058 0.019 0.003 0.889 12.824 -3.725 -10.588
1.7975719580000202 0.028 -0.022 0.889 8.664 -3.237 -9.626
1.8047402920000195 0.02 -0.067 0.917 5.962 -0.809 -8.656
1.816923083000006 0.006 -0.035 0.93 3.481 0.794 -2.038
1.824424917000016 0.039 -0.038 0.898 4.542 2.008 1.405
1.836934250000013 0.051 -0.011 0.88 5.42 0.351 0.794
1.8489646250000078 0.054 -0.003 0.842 4.511 -4.275 -1.008
1.8565206670000123 0.039 -0.007 0.841 5.366 -6.061 -2.466
1.8687383330000102 0.033 0.002 0.839 4.397 -7.733 -4.45
1.8760054580000087 0.035 -0.005 0.849 2.55 -7.733 -4.313
1.8883198750000076 0.046 -0.009 0.872 1.443 -5.298 -3.656
1.8955863330000113 0.042 -0.013 0.88 -0.397 -1.282 -0.344
1.9078470000000038 0.025 -0.023 0.874 -1.053 3.351 4.496
1.9151635000000056 0.019 -0.032 0.862 1.443 7.412 10.183
1.927502875000016 0.018 -0.006 0.871 2.71 7.237 12.412
1.9352231670000037 0.049 0.028 0.866 0.656 2.573 9.954
1.9474158750000186 0.058 0.055 0.858 0.802 -0.542 4.542
1.9549221250000244 0.06 0.059 0.875 3.16 -4.282 -2.267
1.967415458000005 0.065 0.061 0.908 4.855 -6.412 -6.863
1.9745968750000031 0.073 0.082 0.901 2.389 -7.481 -8.496
1.9865948750000086 0.073 0.076 0.91 1.496 -6.817 -8.466
1.9989553750000084 0.074 0.038 0.929 2.603 -4.076 -6.29
