Time AX AY AZ GX GY GZ
0.014236624992918223 -0.014 0.113 1.147 4.16 10.26 -41.855
0.026417374989250675 0.009 0.12 1.137 4.359 10.405 -39.649
0.033602208000957035 0.003 0.134 1.155 3.817 11.473 -38.748
0.045934082998428494 0.011 0.136 1.145 2.496 13.389 -37.893
0.0530242919921875 -0.001 0.125 1.151 0.382 17.053 -39.214
0.06511475000297651 -0.015 0.108 1.155 -2.191 20.427 -41.145
0.0769792079954641 -0.017 0.106 1.159 -4.244 21.977 -44.321
0.08467408300202806 -0.004 0.108 1.152 -5.221 23.084 -46.206
0.09594979199755471 -0.003 0.104 1.145 -5.672 24.794 -47.221
0.1031884169933619 0.01 0.109 1.131 -4.519 27.336 -48.542
0.11533779199817218 0.015 0.109 1.117 -2.763 30.321 -48.756
0.12739716700161807 0.01 0.109 1.118 -0.405 32.29 -47.863
0.13453370799834374 0.011 0.118 1.113 1.038 33.26 -46.336
0.14670087498961948 -0.008 0.129 1.136 0.053 32.87 -45.153
0.15387629199540243 -0.006 0.139 1.174 -1.206 30.336 -44.481
0.165791999999783 -0.011 0.142 1.182 -2.443 28.458 -44.244
0.17263891699258238 -0.012 0.129 1.193 -1.786 28.802 -45.542
0.18484579199866857 -0.014 0.128 1.2 -1.779 29.328 -47.824
0.1970531669940101 -0.021 0.154 1.223 -4.015 28.046 -48.534
0.20398666699475143 -0.022 0.139 1.216 -4.466 26.221 -47.893
0.21603004199278075 -0.025 0.132 1.2 -3.855 23.901 -46.779
0.22295016699354164 -0.005 0.134 1.174 -2.664 23.244 -45.809
0.2350115829904098 -0.007 0.138 1.177 -2.74 23.053 -45.13
0.24697083300270606 -0.023 0.144 1.193 -3.908 22.015 -44.298
0.25424974999623373 -0.033 0.126 1.198 -3.931 19.802 -44.397
0.2662554169946816 -0.023 0.12 1.179 -4.832 19.076 -45.87
0.2734111669997219 -0.011 0.114 1.186 -5.244 18.42 -47.473
0.2851055420032935 0.006 0.123 1.156 -6.191 18.626 -48.557
0.29744195799867157 0.005 0.127 1.151 -6.351 19.412 -49.122
0.30421533300250303 -0.01 0.126 1.172 -5.344 18.435 -47.534
0.3165646669949638 -0.011 0.127 1.173 -3.893 16.336 -45.664
0.32304837499395944 -0.003 0.128 1.155 -2.885 15.313 -43.817
0.3353910829900997 -0.006 0.121 1.143 -2.412 14.679 -43.206
0.34740537499601487 -0.009 0.104 1.137 -2.374 15.336 -43.405
0.3543716249987483 -0.032 0.093 1.151 -3.176 15.656 -45.695
0.36632454200298525 -0.03 0.093 1.162 -3.359 14.053 -48.221
0.37331504200119525 -0.021 0.089 1.147 -2.817 13.565 -50.412
0.38562254200223833 0.007 0.099 1.127 -2.634 16.511 -52.107
0.3924370419990737 0.02 0.111 1.119 -1.847 21.405 -52.42
0.4046521669952199 0.014 0.125 1.102 -0.076 25.939 -51.153
0.41682087499066256 -0.006 0.136 1.12 1.176 27.893 -48.573
0.42388195799139794 -0.032 0.136 1.163 2.489 25.099 -44.298
0.43639354199694935 -0.034 0.145 1.195 3.802 19.0 -38.893
0.4432351249997737 -0.045 0.142 1.21 4.374 11.206 -33.992
0.4553495419968385 -0.034 0.124 1.207 4.389 5.084 -30.427
0.4623792499914998 -0.045 0.1 1.209 5.359 1.015 -30.893
0.4748586249916116 -0.061 0.11 1.185 5.046 -1.748 -34.489
0.4869906249950873 -0.054 0.103 1.173 4.458 -2.038 -39.985
0.4941031249909429 -0.028 0.104 1.151 2.145 2.053 -46.687
0.5061409170011757 0.022 0.103 1.137 -0.092 9.992 -53.626
0.5134518330014544 0.038 0.122 1.131 -3.298 18.466 -58.16
0.5255501249921508 0.043 0.123 1.133 -5.641 25.168 -60.794
0.5326068330032285 0.049 0.15 1.145 -7.328 28.71 -61.168
0.5447753329935949 0.04 0.16 1.187 -6.916 27.183 -58.198
0.5570189580030274 0.028 0.157 1.209 -4.962 21.855 -53.321
0.5640593749994878 0.015 0.156 1.215 -2.252 15.29 -48.908
0.5762378329964122 0.021 0.156 1.222 0.191 9.267 -45.878
0.5835042919934494 0.025 0.148 1.189 1.733 6.885 -44.939
0.5960126669961028 0.042 0.159 1.167 1.153 7.802 -45.466
0.6031102499982808 0.044 0.156 1.157 -0.687 10.275 -45.855
0.6150446249957895 0.05 0.158 1.161 -3.336 12.481 -45.863
0.6272671249898849 0.045 0.158 1.158 -6.206 15.16 -44.58
0.63410224999825 0.032 0.122 1.184 -7.344 15.351 -42.763
0.646460207994096 0.021 0.126 1.18 -7.366 12.626 -40.931
0.6534333750023507 0.023 0.105 1.192 -6.45 10.847 -38.893
0.6655181669921149 0.022 0.103 1.179 -4.496 9.13 -37.779
0.6727693330030888 0.009 0.107 1.193 -2.947 8.168 -36.595
0.6850712500017835 0.005 0.111 1.206 -2.489 7.351 -38.664
0.6971868330001598 0.025 0.107 1.176 -3.84 10.84 -44.275
0.7041489169932902 0.029 0.114 1.172 -5.84 15.634 -50.183
0.71626624999044 0.045 0.119 1.168 -7.832 20.305 -54.374
0.723421791990404 0.038 0.118 1.173 -8.649 22.672 -56.069
0.7355861669930164 0.049 0.119 1.177 -9.046 22.84 -56.0
0.7427394169935724 0.047 0.115 1.177 -8.382 22.58 -55.527
0.7550177919911221 0.053 0.109 1.178 -7.359 21.267 -54.634
0.7670672079984797 0.055 0.12 1.174 -6.038 19.504 -54.405
0.7737421249912586 0.066 0.126 1.172 -4.603 17.542 -53.092
0.7860224169999128 0.07 0.133 1.146 -3.71 16.511 -51.321
0.7928649579989724 0.084 0.132 1.139 -3.198 17.817 -49.954
0.8050900419912068 0.088 0.133 1.151 -3.405 20.695 -49.29
0.8174557079910301 0.075 0.136 1.167 -4.298 22.282 -48.649
0.8245764169987524 0.074 0.126 1.178 -4.733 23.023 -47.618
0.8368265829922166 0.061 0.131 1.172 -5.099 22.542 -46.672
0.8435039579926524 0.052 0.127 1.175 -5.42 23.473 -45.893
0.8556255829898873 0.036 0.119 1.169 -5.321 24.13 -46.687
0.8629683329927502 0.03 0.122 1.18 -5.053 23.649 -48.145
0.8751614999928279 0.035 0.119 1.158 -5.305 22.954 -49.298
0.887317125001573 0.049 0.119 1.155 -5.534 24.13 -50.618
0.8943161249917466 0.053 0.128 1.15 -5.969 25.695 -51.397
0.9064239579893183 0.04 0.139 1.158 -7.275 25.817 -50.206
0.9136558750033146 0.002 0.136 1.166 -7.718 22.527 -48.496
0.9256725419982104 -0.003 0.131 1.179 -6.779 17.756 -46.053
0.9308944999938831 -0.002 0.111 1.164 -5.718 13.618 -44.969
0.9445741249946877 -0.011 0.101 1.164 -4.405 10.176 -44.588
0.9567274579894729 0.023 0.087 1.163 -3.71 9.351 -45.183
0.9639968749979744 0.021 0.1 1.16 -4.176 9.237 -45.42
0.9759593329945346 0.034 0.09 1.14 -5.275 10.817 -45.603
0.9832018329907442 0.038 0.087 1.149 -5.878 12.221 -46.313
0.9956176669948036 0.057 0.089 1.14 -5.71 13.405 -47.473
1.007586416992126 0.059 0.091 1.128 -5.603 17.191 -48.382
1.0143379169894615 0.052 0.085 1.141 -5.786 18.962 -49.031
1.0267184169933898 0.029 0.091 1.134 -4.908 19.931 -48.771
1.0337884579930687 0.03 0.083 1.151 -3.366 19.183 -47.84
1.0456894579983782 0.001 0.097 1.154 -2.214 15.42 -45.282
1.0527918329898966 -0.008 0.094 1.153 -1.618 10.58 -41.389
1.0650776669936022 -0.015 0.094 1.167 -2.107 5.084 -37.13
1.0772207499976503 0.014 0.099 1.174 -3.969 1.313 -33.115
1.084380667001824 0.006 0.097 1.18 -6.183 -0.145 -31.176
1.0964534579979954 0.01 0.088 1.174 -8.511 -0.565 -30.664
1.103341249996447 0.028 0.081 1.153 -10.321 3.351 -31.511
1.1155768750031712 0.022 0.076 1.142 -10.344 8.42 -33.076
1.1226668329909444 0.01 0.068 1.134 -9.351 12.275 -35.389
1.1348011669906555 0.019 0.074 1.143 -9.214 13.489 -38.641
1.146964957995806 0.027 0.073 1.147 -7.695 12.832 -39.771
1.1543835420015967 0.047 0.088 1.141 -6.802 12.305 -39.863
1.1663122919999296 0.05 0.097 1.139 -7.618 11.038 -38.183
1.1733712919958634 0.058 0.085 1.147 -6.794 9.191 -36.16
1.185562625003513 0.056 0.07 1.148 -3.779 6.374 -33.847
1.1927728750015376 0.04 0.076 1.154 -1.916 3.718 -32.214
1.204878832999384 0.054 0.076 1.166 -0.183 3.649 -32.542
1.2172212500008754 0.063 0.08 1.163 0.45 7.954 -34.618
1.2244315830030246 0.088 0.09 1.144 -0.626 17.237 -38.664
1.2365571249974892 0.06 0.098 1.176 -2.756 25.176 -42.924
1.2434256249980535 0.038 0.096 1.214 -4.779 28.45 -46.74
1.255539374993532 0.026 0.092 1.206 -4.687 29.084 -50.031
1.2626537499891128 0.027 0.092 1.197 -3.206 28.336 -53.176
1.2748703329998534 0.037 0.09 1.216 -0.382 25.809 -56.611
1.2869304999912856 0.033 0.098 1.218 3.916 20.603 -57.626
1.2941275829944061 0.04 0.095 1.213 6.947 15.786 -57.359
1.3065162080019945 0.066 0.106 1.153 6.977 14.817 -57.397
1.3134823329892242 0.095 0.102 1.117 2.977 21.099 -59.687
1.325750957999844 0.073 0.104 1.119 -2.282 28.069 -65.206
1.3327343330020085 0.067 0.087 1.167 -5.832 31.947 -71.053
1.344873333000578 0.043 0.1 1.19 -6.092 31.863 -74.511
1.3570370419911342 0.059 0.119 1.187 -5.595 29.786 -75.344
1.3638492500031134 0.073 0.142 1.212 -5.412 26.053 -73.794
1.3762085420021322 0.09 0.157 1.207 -4.229 20.595 -69.489
1.383414707990596 0.114 0.155 1.2 -2.885 17.45 -64.786
1.3957201250013895 0.109 0.142 1.178 -1.573 16.214 -60.916
1.4013605419895612 0.104 0.129 1.167 -0.809 16.053 -58.344
1.4145400830020662 0.102 0.115 1.147 -1.489 18.26 -57.855
1.426747958001215 0.095 0.112 1.152 -2.901 22.573 -59.137
1.433912374995998 0.088 0.103 1.154 -4.954 27.206 -60.863
1.4459903749957448 0.058 0.093 1.176 -7.069 29.26 -61.893
1.4531592080020346 0.035 0.086 1.2 -7.298 28.992 -63.748
1.4651715419895481 0.026 0.077 1.199 -6.015 25.55 -64.985
1.4775241250026738 0.025 0.077 1.183 -2.916 19.527 -64.931
1.4843054169905372 0.06 0.093 1.153 -0.733 15.42 -63.992
1.496504291993915 0.104 0.099 1.106 -1.237 18.504 -64.885
1.503654166997876 0.113 0.083 1.089 -2.229 25.595 -66.679
1.5158437499922002 0.106 0.073 1.09 -2.435 31.229 -68.878
1.5229780829977244 0.099 0.084 1.098 -1.504 34.855 -70.092
1.5352017080003861 0.064 0.089 1.122 -1.962 34.359 -69.939
1.547129207989201 0.061 0.076 1.145 -1.206 32.084 -69.015
1.5541323329962324 0.041 0.076 1.172 -0.198 27.565 -69.153
1.5662949580000713 0.063 0.089 1.18 -0.733 21.908 -68.611
1.5734812919981778 0.088 0.083 1.176 -1.718 18.359 -67.389
1.5855854580004234 0.103 0.096 1.164 -2.863 16.481 -64.237
1.5927728749957168 0.115 0.102 1.164 -2.74 17.183 -59.977
1.604854624994914 0.104 0.092 1.148 -1.069 20.237 -56.443
1.6169145000021672 0.082 0.095 1.152 0.008 23.718 -53.809
1.6241309579927474 0.052 0.082 1.182 1.771 24.573 -52.573
1.6363220420025755 0.054 0.08 1.181 2.794 24.0 -50.924
1.64347079199797 0.048 0.087 1.166 1.634 23.038 -50.145
1.6557448329986073 0.036 0.078 1.162 0.595 22.336 -49.359
1.6627192919986555 0.028 0.085 1.165 -0.611 20.908 -48.588
1.6751212079980178 0.027 0.074 1.168 0.298 19.855 -47.763
1.6871578749996843 0.014 0.102 1.169 0.573 17.939 -46.511
1.6944200829893816 0.008 0.102 1.187 -0.641 16.702 -45.389
1.7062924999918323 -0.004 0.092 1.209 -1.008 14.221 -45.351
1.7137148749898188 -0.001 0.108 1.202 -2.634 11.328 -45.122
1.725587708002422 0.003 0.109 1.2 -3.466 8.038 -44.634
1.7324167499900796 0.025 0.111 1.186 -3.634 5.511 -43.351
1.744790999990073 0.041 0.12 1.184 -2.45 3.298 -40.87
1.7569947919982951 0.068 0.136 1.19 -0.878 -0.061 -36.275
1.7640855829959037 0.095 0.149 1.18 0.198 -1.954 -31.534
1.7765357079915702 0.08 0.148 1.196 1.733 -3.954 -26.489
1.7836257919989293 0.075 0.123 1.173 2.992 -7.0 -22.969
1.7957234170025913 0.075 0.108 1.172 4.206 -9.267 -21.008
1.8028562919935212 0.09 0.107 1.135 3.466 -7.252 -20.382
1.8149467920011375 0.094 0.132 1.122 0.725 -2.344 -19.901
1.8276300419965992 0.125 0.12 1.109 -2.45 5.458 -20.695
1.834260167001048 0.099 0.103 1.132 -3.504 13.649 -21.977
1.8463920829963172 0.05 0.114 1.177 -4.13 15.618 -22.756
1.8536819579894654 0.038 0.103 1.19 -5.359 15.046 -24.977
1.865770332995453 0.029 0.094 1.188 -6.153 15.588 -29.443
1.8728360419918317 0.01 0.1 1.205 -7.832 14.725 -34.824
1.8850939580006525 0.017 0.107 1.214 -9.031 12.237 -38.939
1.8971499999897787 0.026 0.111 1.201 -8.649 10.908 -41.847
1.904341250003199 0.032 0.129 1.206 -8.87 7.794 -42.427
1.9164590000000317 0.065 0.141 1.204 -9.229 5.275 -42.214
1.923624542003381 0.089 0.115 1.188 -10.496 8.206 -43.191
1.9355125419970136 0.055 0.125 1.205 -11.168 10.55 -44.443
1.9427317919908091 0.03 0.123 1.199 -12.802 10.916 -45.771
1.9548240000003716 -0.003 0.11 1.208 -14.145 9.229 -48.229
1.9667033750010887 -0.021 0.087 1.214 -15.099 6.145 -51.053
1.9735870829899795 -0.01 0.075 1.198 -15.29 1.313 -54.977
1.9857616249937564 0.044 0.065 1.141 -16.611 0.359 -60.031
1.9932022499997402 0.101 0.069 1.1 -18.206 4.153 -64.321
2.0052274579938967 0.129 0.064 1.091 -17.664 8.534 -65.45
2.0172944169898983 0.144 0.056 1.086 -14.107 11.901 -65.076
2.0240309169894317 0.121 0.052 1.129 -8.725 13.45 -63.412
2.036207832992659 0.099 0.077 1.151 -4.756 13.573 -62.053
2.0432927919900976 0.082 0.082 1.174 -3.061 11.863 -62.252
2.0556333330023335 0.069 0.105 1.183 -3.565 9.176 -61.725
2.062679541995749 0.083 0.118 1.19 -5.405 8.122 -61.168
2.0751353749947157 0.081 0.101 1.185 -7.649 8.725 -61.26
2.087172457991983 0.079 0.085 1.183 -9.229 10.023 -62.015
2.093745082995156 0.073 0.077 1.164 -10.153 9.885 -63.794
2.1063167079992127 0.094 0.064 1.156 -9.84 11.053 -65.71
2.113549250003416 0.113 0.064 1.142 -9.748 13.366 -67.611
2.1256203329976415 0.159 0.075 1.113 -9.679 18.733 -68.87
2.132781332999002 0.157 0.073 1.125 -8.87 23.786 -68.359
2.144844333000947 0.127 0.075 1.157 -7.0 22.908 -66.603
2.1569670000026235 0.128 0.068 1.151 -4.443 22.046 -64.702
2.163587374991039 0.124 0.06 1.16 -1.794 21.954 -64.092
2.1762455830030376 0.112 0.062 1.18 0.718 20.374 -63.969
2.18340008299856 0.108 0.097 1.189 1.313 15.153 -62.412
2.19543504199828 0.143 0.087 1.177 0.382 13.191 -61.466
2.202822457998991 0.161 0.084 1.139 -0.962 16.947 -61.42
2.214795874999254 0.163 0.079 1.14 -2.573 20.809 -62.74
2.2270015419926494 0.15 0.069 1.16 -3.0 23.427 -63.611
2.233928166999249 0.155 0.078 1.149 -4.221 23.702 -63.84
2.2459780829958618 0.177 0.079 1.136 -3.534 24.855 -63.313
2.253148916992359 0.172 0.076 1.145 -2.153 25.786 -62.366
2.2654008329991484 0.154 0.07 1.159 1.069 23.954 -59.679
2.271594374993583 0.158 0.075 1.137 2.244 22.855 -57.908
2.28484004198981 0.142 0.067 1.152 1.443 23.931 -57.702
2.2970442499936325 0.132 0.064 1.167 0.878 19.168 -57.771
2.3040884169895435 0.145 0.058 1.172 3.389 17.443 -57.557
2.316358083000523 0.16 0.069 1.112 3.511 19.366 -57.771
2.3235529999947175 0.168 0.041 1.099 2.328 22.649 -59.023
2.3359542499965755 0.201 0.027 1.068 0.366 27.802 -62.122
2.342826291991514 0.224 0.032 1.031 -2.13 36.397 -64.779
2.3549700419971487 0.225 0.025 1.028 -4.183 46.282 -66.443
2.3669945419969736 0.202 0.042 1.054 -5.0 59.168 -67.611
2.3741485420032404 0.115 0.075 1.13 -5.031 63.519 -65.565
2.3862620419968152 0.027 0.07 1.235 -2.534 57.656 -61.885
2.3936290419951547 -0.076 0.086 1.322 0.023 37.176 -57.595
2.4056046249897918 -0.078 0.074 1.31 1.664 12.137 -53.45
2.4113557079981547 -0.006 0.075 1.213 0.763 -1.328 -53.908
2.4245938749954803 0.089 0.056 1.158 -0.328 -3.0 -59.992
2.437083917000564 0.185 0.078 1.105 -0.076 5.939 -67.298
2.4439712919993326 0.257 0.098 1.076 -1.29 21.672 -73.725
2.4559748329920694 0.268 0.124 1.113 -0.145 35.718 -76.16
2.4631720000033965 0.224 0.144 1.175 1.168 37.824 -74.611
2.4756514170003356 0.19 0.157 1.23 2.061 30.687 -69.427
2.4827270829991903 0.193 0.156 1.222 1.588 21.221 -63.443
2.4948436669947114 0.211 0.139 1.207 0.626 13.74 -58.534
2.5069870829902356 0.231 0.139 1.149 -0.954 8.802 -54.214
2.514207041996997 0.252 0.11 1.139 -2.359 7.939 -51.733
2.526218250000966 0.273 0.102 1.116 -3.527 12.557 -51.015
2.5333757499902276 0.265 0.085 1.11 -4.405 21.557 -52.687
