Time AX AY AZ GX GY GZ
0.01985525000782218 0.001 0.083 1.164 2.229 20.298 -43.817
0.026804958004504442 0.008 0.096 1.191 1.58 18.863 -43.603
0.038913291005883366 0.014 0.107 1.177 -0.321 17.977 -42.115
0.04597433299932163 0.021 0.115 1.172 -2.939 17.885 -41.626
0.05834995800978504 -0.004 0.104 1.179 -5.031 17.336 -41.626
0.065231083004619 -0.016 0.089 1.177 -5.412 16.313 -42.649
0.07746400000178255 0.002 0.088 1.167 -4.702 17.427 -43.74
0.0895467080117669 -0.012 0.081 1.163 -3.573 18.168 -44.519
0.09641191600530874 -0.003 0.074 1.152 -1.42 18.481 -44.885
0.10855112499848474 -0.001 0.079 1.158 1.183 17.542 -44.405
0.1156370410026284 0.018 0.092 1.137 1.855 18.557 -43.855
0.12778366600105073 0.018 0.082 1.152 1.405 21.076 -44.214
0.13993045801180415 -0.001 0.095 1.159 0.824 21.496 -44.718
0.1471078330068849 -0.014 0.101 1.187 -0.427 21.023 -45.069
0.15897258299810346 -0.031 0.105 1.205 -1.656 18.359 -44.855
0.16614645801018924 -0.018 0.094 1.206 -1.924 16.435 -44.237
0.17803929100045934 -0.019 0.11 1.185 -2.29 15.885 -43.718
0.18516608299978543 -0.025 0.104 1.168 -3.74 17.389 -42.511
0.19716058300400618 -0.041 0.082 1.176 -4.45 18.885 -41.985
0.20927820799988694 -0.084 0.093 1.196 -5.489 16.458 -41.221
0.21617308299755678 -0.11 0.055 1.217 -5.237 12.969 -40.756
0.22825016600836534 -0.119 0.043 1.207 -3.328 10.038 -42.244
0.23537237499840558 -0.111 0.045 1.193 -2.122 8.802 -44.748
0.24752416599949356 -0.096 0.051 1.187 -1.107 9.931 -48.427
0.2594262080092449 -0.075 0.06 1.167 -0.84 12.443 -51.321
0.26676012499956414 -0.053 0.068 1.163 -0.824 14.809 -53.435
0.2785565000085626 -0.041 0.069 1.144 -1.168 17.176 -54.626
0.2857224580075126 -0.046 0.073 1.146 -1.565 19.344 -55.603
0.2975927910010796 -0.058 0.082 1.167 -2.42 17.13 -55.168
0.30968608301191125 -0.039 0.08 1.171 -2.275 14.511 -55.0
0.3166504580003675 -0.033 0.074 1.153 -2.656 15.031 -55.29
0.328886290997616 -0.013 0.085 1.143 -3.305 16.649 -55.366
0.33577483300177846 -0.005 0.071 1.136 -3.565 17.878 -52.664
0.34783354100363795 0.006 0.081 1.124 -3.977 19.656 -49.954
0.36014512499968987 -0.027 0.056 1.125 -2.611 19.817 -48.084
0.36703354099881835 -0.04 0.033 1.146 -1.076 20.229 -50.008
0.37907062500016764 -0.074 0.023 1.154 -0.588 19.603 -54.985
0.38616287500190083 -0.074 0.045 1.181 2.031 14.046 -59.58
0.39833120800904 -0.028 0.089 1.157 5.191 10.183 -60.656
0.4055055409990018 0.038 0.117 1.135 7.466 11.397 -59.603
0.41764600000169594 0.051 0.142 1.142 5.489 15.71 -57.053
0.4298031250073109 0.044 0.147 1.163 2.023 20.061 -55.267
0.4368932910001604 0.019 0.137 1.176 -2.198 22.763 -54.229
0.4490641660086112 -0.007 0.116 1.178 -4.855 21.718 -53.977
0.4559675830096239 -0.021 0.094 1.19 -4.344 18.794 -53.664
0.4681536660064012 -0.024 0.083 1.162 -3.458 17.031 -53.275
0.47990783301065676 -0.024 0.077 1.177 -1.824 14.473 -52.847
0.48706979100825265 -0.011 0.08 1.171 -0.496 11.122 -51.756
0.4992549160087947 0.006 0.078 1.156 -0.74 12.374 -51.313
0.5059767500060843 0.013 0.071 1.151 -1.397 15.145 -52.137
0.5183149160002358 0.018 0.084 1.135 -1.183 17.702 -51.565
0.5254081660095835 0.02 0.084 1.129 -0.656 20.924 -49.947
0.5376178750011604 0.009 0.079 1.144 0.176 23.443 -48.061
0.5497532080044039 -0.007 0.077 1.157 1.366 24.313 -48.42
0.5569712500000605 -0.027 0.061 1.178 2.427 23.588 -49.092
0.5689986250072252 -0.014 0.078 1.163 3.053 22.595 -50.794
0.576218375004828 0.01 0.1 1.164 1.122 23.092 -52.038
0.5883402500039665 0.033 0.1 1.177 0.237 25.198 -52.763
0.5954497500060825 0.036 0.137 1.18 -2.26 27.191 -51.435
0.6074937500088708 0.053 0.143 1.2 -4.557 26.992 -47.855
0.6196910830039997 0.041 0.147 1.188 -6.626 27.901 -43.931
0.6268825410079444 0.014 0.12 1.201 -8.832 27.679 -42.023
0.638888625006075 -0.006 0.113 1.237 -7.908 21.824 -41.885
0.6460881660023006 0.005 0.12 1.211 -7.221 17.382 -41.824
0.6581021250021877 0.022 0.119 1.189 -4.305 15.481 -41.0
0.6652133330062497 0.019 0.122 1.18 -1.809 14.328 -40.099
0.6772821250051493 -0.003 0.12 1.174 0.13 10.939 -39.305
0.6895125410082983 -0.009 0.108 1.164 1.687 10.046 -39.038
0.6966274580045138 -0.001 0.107 1.183 0.176 9.901 -40.137
0.7086406660091598 -0.002 0.101 1.196 -3.053 8.656 -40.473
0.7153987909987336 0.014 0.091 1.184 -4.924 10.924 -43.0
0.7278332499990938 0.024 0.088 1.138 -8.313 16.977 -47.237
0.7399651250016177 0.031 0.086 1.132 -9.168 22.16 -50.168
0.746956916002091 0.008 0.087 1.148 -7.878 23.969 -51.244
0.7592895830021007 -0.001 0.081 1.154 -3.84 21.977 -52.122
0.7662639160116669 0.02 0.089 1.173 1.794 18.954 -51.924
0.7784916660020826 0.033 0.11 1.18 4.282 13.321 -51.115
0.785716416008654 0.057 0.129 1.18 4.626 10.45 -49.313
0.7978191660076845 0.082 0.142 1.152 1.542 12.366 -48.115
0.8098685830045724 0.094 0.152 1.165 -3.817 14.878 -47.092
0.817167083005188 0.084 0.128 1.178 -6.664 17.779 -45.412
0.8292101660044864 0.052 0.119 1.163 -8.16 18.672 -45.313
0.8363320409989683 0.028 0.114 1.183 -7.832 15.954 -43.466
0.8484974580060225 0.031 0.109 1.161 -7.099 13.221 -42.321
0.8554687080031727 0.03 0.092 1.137 -6.74 13.298 -42.321
0.8676420830015559 0.028 0.063 1.117 -6.053 14.42 -43.947
0.8797386250080308 0.025 0.043 1.111 -5.145 16.328 -46.626
0.8868605000025127 0.016 0.046 1.109 -2.031 16.466 -48.221
0.8990025000093738 0.013 0.045 1.116 2.29 15.214 -48.893
0.9061390410060994 0.005 0.081 1.117 3.489 14.702 -48.771
0.9182281660032459 -0.017 0.093 1.188 2.786 10.031 -48.954
0.9256728750042384 0.014 0.098 1.175 1.427 7.588 -48.786
0.9378100410103798 0.044 0.094 1.148 -1.931 10.771 -50.405
0.9499532500049099 0.044 0.084 1.146 -4.473 15.992 -51.84
0.95685383300588 0.025 0.09 1.154 -4.603 16.985 -52.695
0.9689526660076808 0.009 0.087 1.175 -3.443 15.328 -52.534
0.976187000007485 0.018 0.095 1.169 -2.351 13.962 -52.069
0.9882984160067281 0.037 0.095 1.172 -0.626 13.87 -52.122
0.9953935410012491 0.043 0.086 1.162 1.198 13.145 -51.832
1.007456125007593 0.064 0.08 1.151 1.656 14.214 -52.504
1.020011375003378 0.08 0.087 1.154 0.237 17.939 -54.244
1.0270372910017613 0.074 0.093 1.176 -1.305 21.206 -54.397
1.0390607500012266 0.055 0.103 1.191 -2.366 22.313 -52.977
1.0462629160028882 0.051 0.103 1.2 -2.107 21.023 -49.985
1.0583559580118163 0.057 0.081 1.189 -0.695 19.504 -47.328
1.0654401250067167 0.041 0.085 1.192 0.626 17.282 -45.031
1.077507375011919 0.027 0.082 1.201 0.137 15.885 -43.679
1.089724125005887 0.024 0.089 1.191 -1.16 15.069 -43.305
1.0969200000108685 0.028 0.084 1.171 -3.282 17.061 -44.313
1.1089283330074977 0.02 0.078 1.187 -3.733 19.023 -45.595
1.1158962909976253 -0.005 0.085 1.202 -2.763 15.527 -45.214
1.128309583000373 0.0 0.091 1.217 -0.817 9.847 -43.74
1.135489125008462 0.018 0.094 1.18 1.076 5.649 -42.374
1.1475350000109756 0.032 0.098 1.167 -1.817 6.947 -43.183
1.1597647500020685 0.048 0.094 1.17 -5.908 11.389 -45.977
1.1669808750011725 0.044 0.094 1.168 -8.458 15.336 -48.87
1.1792037499981234 0.048 0.091 1.156 -10.626 19.305 -50.649
1.1859474579978269 0.032 0.086 1.167 -10.038 21.099 -51.817
1.1980929999990622 0.043 0.088 1.179 -7.42 19.908 -51.733
1.2051565830042819 0.048 0.078 1.161 -4.023 19.351 -50.153
1.217316333000781 0.063 0.095 1.158 -0.435 19.267 -47.664
1.2294462080026278 0.06 0.103 1.165 1.313 18.924 -45.305
1.2365573330025654 0.051 0.115 1.202 0.069 18.092 -44.237
1.2488510410039453 0.063 0.101 1.215 -1.282 17.191 -43.282
1.255967832999886 0.058 0.102 1.202 -2.298 16.817 -43.275
1.2679783750063507 0.061 0.087 1.167 -3.802 17.649 -44.733
1.2739746250008466 0.052 0.086 1.159 -3.641 18.305 -45.87
1.2871117910108296 0.044 0.098 1.152 -4.527 20.443 -46.641
1.2992450830060989 0.015 0.08 1.193 -4.466 20.374 -46.756
1.3064078750030603 0.011 0.086 1.177 -5.26 20.099 -48.015
1.3185294160066405 0.007 0.082 1.188 -6.382 20.176 -49.412
1.3257165830000304 0.009 0.073 1.182 -5.74 19.931 -50.817
1.3378100000118138 0.041 0.078 1.171 -5.267 22.145 -53.527
1.3499632080056472 0.028 0.11 1.177 -7.695 23.191 -54.763
1.3568931659974623 0.014 0.112 1.196 -12.29 21.183 -54.786
1.3688122500025202 -0.012 0.082 1.25 -12.954 13.122 -52.718
1.3757206250011222 0.016 0.079 1.246 -10.725 3.962 -50.756
1.3884904160076985 0.08 0.081 1.158 -10.176 6.313 -49.137
1.3951358330086805 0.101 0.065 1.142 -9.725 16.023 -49.84
1.4074729999992996 0.067 0.075 1.138 -7.489 22.069 -50.885
1.4193922080012271 0.051 0.068 1.14 -6.321 26.519 -53.275
1.4263521250104532 0.034 0.052 1.172 -2.954 27.641 -55.237
1.4387285410048207 0.021 0.07 1.188 0.351 22.427 -54.611
1.4459515409980668 0.036 0.087 1.188 1.641 16.435 -52.481
1.4580226250109263 0.057 0.093 1.18 1.389 13.221 -49.595
1.4651823330059415 0.084 0.095 1.156 -0.618 13.916 -47.084
1.4774355000117794 0.07 0.096 1.166 -3.656 14.29 -46.733
1.4894803750066785 0.06 0.078 1.173 -7.092 14.908 -47.122
1.4962089160108007 0.053 0.074 1.163 -10.26 14.763 -49.069
1.508500500000082 0.066 0.067 1.136 -11.977 14.489 -50.542
1.5153060410084436 0.085 0.066 1.127 -11.725 15.656 -50.733
1.5275563330069417 0.08 0.072 1.123 -10.191 14.748 -49.718
1.5397040829993784 0.077 0.068 1.15 -7.466 10.565 -46.924
1.546740707999561 0.117 0.06 1.122 -4.786 9.076 -43.427
1.5589709159976337 0.123 0.09 1.108 -4.038 10.992 -40.863
1.5660489160072757 0.124 0.076 1.132 -4.145 14.183 -39.084
1.5779095830075676 0.1 0.069 1.173 -3.832 15.099 -38.275
1.5852075000002515 0.089 0.071 1.158 -5.443 16.237 -39.328
1.5973542080027983 0.091 0.061 1.161 -7.351 21.008 -41.939
1.6093692910071695 0.078 0.068 1.186 -8.603 25.13 -44.618
1.6166044160054298 0.069 0.076 1.185 -9.458 25.489 -45.748
1.6288230830105022 0.077 0.056 1.196 -8.863 24.794 -46.168
1.6356151250074618 0.076 0.048 1.16 -6.061 24.58 -45.695
1.6478031250007916 0.063 0.039 1.155 -2.908 24.649 -45.885
1.653728208009852 0.049 0.038 1.158 1.389 20.84 -46.153
1.6673710830073105 0.044 0.062 1.158 2.679 17.26 -46.481
1.679482416002429 0.061 0.052 1.176 2.542 15.397 -47.618
1.6865965000033611 0.085 0.051 1.151 2.0 17.076 -47.885
1.6987622910091886 0.103 0.063 1.123 1.42 20.733 -48.336
1.7059231660095975 0.077 0.063 1.135 1.992 23.038 -47.122
1.718488791011623 0.052 0.067 1.159 2.87 24.061 -45.55
1.7255450000084238 0.036 0.093 1.189 1.351 22.824 -44.313
1.7375609580049058 0.031 0.088 1.192 -1.214 21.618 -43.069
1.749783874998684 0.034 0.087 1.219 -2.145 17.656 -42.282
1.7564425830059918 0.034 0.077 1.189 -1.779 14.42 -40.634
1.7687552499992307 0.046 0.064 1.159 -1.191 14.802 -40.687
1.7758567499986384 0.052 0.057 1.147 -0.702 17.321 -41.115
1.7879268329998013 0.059 0.053 1.135 -0.29 21.649 -42.359
1.7957450829999289 0.064 0.037 1.133 0.962 28.519 -43.748
1.8073321249976289 0.045 0.037 1.157 3.092 33.015 -45.771
1.819750250011566 0.009 0.055 1.16 3.092 32.603 -47.725
1.8266100410110084 -0.01 0.054 1.189 2.282 29.565 -49.351
1.8388145409990102 -0.004 0.051 1.211 3.702 25.931 -50.053
1.845972499999334 0.022 0.065 1.196 4.298 24.641 -51.015
1.858267166011501 0.041 0.07 1.176 3.519 25.878 -51.794
1.865428791003069 0.045 0.068 1.198 2.977 29.023 -53.328
1.8775337080005556 0.024 0.075 1.206 3.763 29.412 -53.153
1.8896979999990435 0.015 0.096 1.234 3.496 25.282 -51.87
1.8968777080008294 0.017 0.109 1.196 0.115 21.779 -51.466
1.9089566660113633 0.043 0.087 1.198 -2.42 21.794 -52.29
1.916220166007406 0.048 0.078 1.177 -2.42 22.053 -54.496
1.9282686250080587 0.071 0.083 1.169 -1.061 23.504 -56.878
1.935553000002983 0.111 0.091 1.139 -1.427 29.122 -57.534
1.9475443749979604 0.105 0.104 1.164 -0.389 32.802 -57.0
1.959712625000975 0.091 0.084 1.145 3.198 33.336 -55.366
1.966881166008534 0.075 0.079 1.14 8.557 31.443 -53.397
1.9790302910114406 0.071 0.1 1.151 12.626 29.817 -49.122
1.9861554160015658 0.069 0.096 1.15 14.504 30.305 -46.137
1.9983241250010906 0.024 0.094 1.202 14.603 32.427 -44.557
2.005157916006283 -0.024 0.102 1.215 11.046 29.878 -44.137
2.0174275830067927 -0.035 0.087 1.217 4.756 29.0 -46.786
2.029722416002187 -0.028 0.07 1.195 -2.473 29.687 -51.496
2.0363471660093637 -0.041 0.078 1.184 -7.26 26.336 -54.344
2.048588875011774 -0.016 0.077 1.178 -6.038 18.802 -53.168
2.0554820410034154 0.028 0.085 1.128 -2.443 15.763 -51.435
2.067663750000065 0.057 0.092 1.102 -0.282 17.489 -50.122
2.0799491250072606 0.059 0.082 1.11 1.962 19.206 -49.221
2.0871242080029333 0.05 0.089 1.137 4.42 18.756 -48.74
2.0991816250025295 0.054 0.085 1.135 6.573 19.954 -48.092
2.1064457500033313 0.051 0.086 1.125 8.176 22.695 -48.939
2.118594750005286 0.057 0.086 1.131 8.618 25.809 -49.992
2.125523458002135 0.05 0.102 1.179 10.824 25.153 -50.099
2.1378138750005746 0.037 0.132 1.163 10.053 23.885 -47.275
2.1499168750015087 0.037 0.152 1.112 3.702 22.481 -44.137
2.157149375008885 0.053 0.123 1.053 -5.389 26.115 -44.359
2.1691567079978995 0.045 0.036 1.082 -4.939 33.168 -47.786
2.1763704160111956 -0.011 0.049 1.089 0.061 32.107 -50.397
2.188565958000254 -0.033 0.068 1.131 6.153 27.252 -50.389
2.1954487080074614 -0.01 0.108 1.158 9.191 24.542 -49.412
2.2076147500047227 -0.018 0.128 1.177 9.863 23.336 -47.29
2.219655541004613 -0.033 0.134 1.189 9.924 19.122 -44.443
2.226860458002193 -0.005 0.133 1.192 9.672 15.893 -43.557
2.2388072080066195 0.01 0.138 1.167 6.832 17.374 -44.87
2.2459035830106586 0.01 0.147 1.162 0.42 19.435 -47.313
2.2582032080099452 0.027 0.133 1.169 -3.786 23.573 -50.038
2.265486290998524 0.029 0.133 1.137 -4.893 27.901 -52.076
2.2774302910111146 0.011 0.115 1.158 -2.763 28.267 -52.725
2.2897804579988588 -0.004 0.111 1.169 2.954 27.916 -50.244
2.2967918750073295 -0.024 0.128 1.18 7.092 26.344 -48.603
2.3091759579983773 -0.048 0.142 1.209 7.916 21.069 -47.672
2.3159792500082403 -0.03 0.136 1.199 7.107 16.412 -46.908
2.3280878750083502 -0.001 0.149 1.159 3.313 16.718 -47.87
2.3353058750071796 -0.005 0.127 1.148 1.58 19.649 -50.534
2.3473394580069 -0.016 0.103 1.138 2.038 21.336 -54.611
2.359446415997809 -0.02 0.112 1.144 3.954 21.351 -59.389
2.3666736660088645 -0.03 0.139 1.165 3.107 18.214 -63.137
2.3786983330064686 -0.006 0.165 1.213 0.824 13.099 -64.557
2.385714415999246 0.048 0.181 1.211 -0.504 12.489 -62.069
2.397777833000873 0.061 0.205 1.184 -2.374 12.695 -58.305
2.4098761250061216 0.05 0.202 1.178 -5.656 12.527 -53.466
2.4171052910096478 0.021 0.146 1.189 -6.046 9.252 -51.145
2.429457165999338 0.029 0.106 1.162 -4.702 7.267 -50.954
2.4365748330019414 0.047 0.089 1.142 -2.885 8.885 -53.145
2.448826583000482 0.058 0.095 1.135 -0.679 12.725 -55.076
2.456106458004797 0.05 0.115 1.158 1.45 19.008 -55.13
2.468065833003493 0.032 0.127 1.181 1.45 23.786 -55.023
2.475272791009047 0.032 0.142 1.187 -0.74 28.053 -55.099
2.4871265410038177 -0.004 0.139 1.235 -3.87 25.87 -54.687
2.499247291008942 -0.018 0.125 1.226 -6.145 20.557 -53.58
2.506129833011073 -0.002 0.117 1.222 -7.748 17.191 -53.733
2.5183607500075595 -0.003 0.135 1.237 -9.298 14.595 -53.511
