Time AX AY AZ GX GY GZ
0.014548082999993994 0.216 -0.157 0.952 -2.26 -0.962 -0.366
0.026710791999988714 0.22 -0.175 0.974 -1.298 -1.214 -0.252
0.033823333000015054 0.219 -0.163 0.964 -0.763 -1.466 0.656
0.04633091700000591 0.214 -0.165 0.95 0.275 -2.374 0.626
0.05333391700000334 0.225 -0.157 0.946 0.74 -2.74 0.015
0.06580033299999855 0.225 -0.16 0.954 0.359 -2.756 0.183
0.0732490420000147 0.231 -0.163 0.941 0.237 -2.206 -0.321
0.08553166699999792 0.236 -0.152 0.941 -0.893 -1.305 -0.893
0.09749141700001474 0.231 -0.141 0.95 -2.55 -1.168 -1.466
0.1048434170000121 0.237 -0.151 0.959 -2.42 -0.176 -0.313
0.11704695800000309 0.246 -0.156 0.978 -2.504 0.802 -0.656
0.12459708299999761 0.248 -0.165 0.989 -2.389 1.328 0.618
0.13682908300000918 0.256 -0.162 0.999 -1.626 1.588 1.122
0.14413362499999494 0.283 -0.181 1.011 -1.244 1.656 1.908
0.15658816699999534 0.309 -0.182 1.03 0.863 1.45 3.397
0.1641855830000054 0.355 -0.178 1.018 4.573 1.076 3.87
0.17640374999999153 0.386 -0.181 1.023 9.252 0.427 -0.779
0.18366775000001212 0.291 -0.153 1.138 3.55 -6.366 -18.13
0.19569008300001656 0.529 -0.188 1.013 14.748 1.756 -3.527
0.2033055420000096 0.58 -0.155 1.04 13.626 3.275 -1.55
0.2152288750000082 0.599 -0.184 1.013 12.878 4.55 -3.885
0.22748999999998887 0.623 -0.163 1.035 9.359 6.588 -2.962
0.23499845800000685 0.635 -0.153 1.014 9.023 7.0 -4.252
0.24726012499999683 0.658 -0.153 1.02 7.397 6.611 -8.473
0.2545552079999993 0.679 -0.122 1.012 5.947 7.649 -11.947
0.26677262500001575 0.668 -0.11 0.992 5.611 8.031 -16.031
0.27414266700000667 0.661 -0.076 0.966 3.435 9.031 -21.718
0.28636962499999186 0.636 -0.092 0.921 3.496 9.542 -27.405
0.293648625000003 0.594 -0.136 0.889 8.008 6.336 -33.588
0.30598420800001236 0.589 -0.122 0.888 13.947 2.206 -39.977
0.31191737500000727 0.63 -0.124 0.896 16.137 -0.664 -43.115
0.32512841700000195 0.632 -0.099 0.875 15.489 -2.718 -48.153
0.3370662080000102 0.634 -0.095 0.917 10.321 -2.244 -49.122
0.3443338330000074 0.647 -0.067 0.859 4.763 -2.702 -53.901
0.356619749999993 0.623 -0.088 0.875 8.267 -0.649 -55.137
0.3636459170000137 0.583 -0.091 0.841 10.282 -3.779 -58.702
0.37571212500000684 0.546 -0.127 0.817 11.756 -6.924 -61.42
0.38179633300001115 0.576 -0.117 0.857 9.076 -6.168 -58.084
0.39531954200000996 0.566 -0.152 0.867 9.641 -1.153 -51.061
0.40730612499999097 0.525 -0.148 0.874 12.924 5.115 -48.664
0.41459533299999407 0.49 -0.121 0.87 12.878 9.702 -49.573
0.4266380830000003 0.412 -0.06 0.846 14.557 11.389 -53.435
0.43391420800000446 0.33 -0.048 0.787 16.412 8.786 -61.824
0.4459207079999885 0.258 -0.004 0.754 17.015 0.962 -69.504
0.45348504200001116 0.195 0.011 0.728 16.321 -10.435 -80.191
0.46527229200000875 0.139 0.001 0.685 16.305 -20.786 -92.519
0.47728695800000764 0.264 0.099 0.659 9.824 -23.16 -92.977
0.4846218330000056 0.178 0.012 0.639 4.015 -29.305 -98.267
0.49675145800000564 0.276 0.01 0.572 3.366 -28.611 -104.0
0.5039003750000006 0.083 -0.026 0.62 -7.924 -29.45 -108.359
0.5155469169999947 0.129 -0.051 0.602 -17.542 -24.389 -100.725
0.5276261250000118 0.046 -0.15 0.621 -25.908 -21.115 -93.672
0.5343940420000024 -0.008 -0.201 0.639 -28.45 -20.473 -89.603
0.5462415830000111 -0.021 -0.2 0.683 -33.221 -18.908 -82.198
0.5533351670000002 -0.015 -0.17 0.708 -34.458 -13.015 -75.359
0.5650819580000075 -0.069 -0.197 0.694 -30.718 -9.214 -73.893
0.5771340000000009 -0.116 -0.114 0.685 -33.374 -7.061 -70.901
0.5842233330000113 -0.148 -0.06 0.646 -42.382 -5.275 -69.244
0.5960719169999891 -0.174 -0.073 0.657 -55.206 -4.076 -67.45
0.6077677499999936 -0.184 -0.105 0.678 -67.198 -3.229 -63.336
0.614788792000013 -0.184 -0.23 0.695 -71.519 -2.313 -56.092
0.6268509580000057 -0.181 -0.348 0.726 -65.611 -2.618 -51.679
0.6339207919999978 -0.191 -0.416 0.727 -51.031 -3.168 -51.305
0.6458412499999895 -0.174 -0.366 0.725 -41.084 -3.794 -50.427
0.6575195000000065 -0.215 -0.255 0.721 -42.458 -4.084 -46.137
0.6646196670000108 -0.187 -0.3 0.749 -49.092 -7.107 -42.466
0.6766230000000064 -0.177 -0.312 0.764 -44.412 -5.588 -40.122
0.6836582079999971 -0.353 -0.329 0.823 -54.031 -7.855 -28.863
0.6954453749999914 -0.199 -0.277 0.797 -61.198 -6.557 -20.58
0.7072789579999892 -0.167 -0.303 0.841 -66.115 -7.809 -12.473
0.714359375000015 -0.17 -0.276 0.85 -68.076 -11.519 -8.962
0.7261527080000008 -0.182 -0.333 0.843 -60.061 -15.939 -11.71
0.7332786670000075 -0.159 -0.318 0.873 -61.336 -23.16 -10.847
0.7451826250000124 -0.094 -0.405 0.933 -63.519 -25.214 -0.038
0.7570562920000157 0.024 -0.45 0.932 -66.229 -15.718 14.794
0.7643145830000151 0.033 -0.476 0.968 -69.267 -6.962 28.313
0.7762391249999894 -0.185 -0.553 1.044 -70.977 -1.924 37.282
0.7834871249999935 -0.165 -0.575 1.123 -71.45 6.504 46.618
0.7954605829999934 -0.26 -0.634 1.044 -68.397 1.985 46.527
0.8075149169999918 -0.177 -0.435 0.997 -64.557 -9.198 43.069
0.8145616669999924 -0.159 -0.498 1.022 -48.817 -26.16 35.733
0.8263908750000155 -0.055 -0.505 1.115 -39.695 -34.374 31.687
0.8334059169999932 0.041 -0.531 1.169 -41.13 -35.55 34.962
0.8455267079999942 0.113 -0.549 1.202 -39.573 -30.55 40.137
0.8575153749999913 0.119 -0.555 1.173 -40.733 -23.901 43.595
0.864574417 0.097 -0.509 1.152 -42.191 -20.099 45.695
0.8766133750000051 0.067 -0.481 1.116 -41.534 -20.405 47.542
0.8836745419999943 0.053 -0.467 1.095 -38.13 -20.573 48.695
0.8957190829999888 0.065 -0.488 1.087 -35.702 -23.611 48.603
0.907489499999997 0.13 -0.489 1.117 -31.435 -24.832 49.603
0.9147928749999892 0.205 -0.522 1.146 -27.985 -23.16 52.252
0.9265777079999964 0.238 -0.514 1.175 -24.26 -23.206 53.145
0.9338712500000099 0.251 -0.527 1.174 -21.962 -27.504 57.252
0.9456717079999919 0.292 -0.576 1.181 -15.466 -29.87 57.328
0.957711125000003 0.31 -0.606 1.18 -7.58 -30.008 54.321
0.9650365420000071 0.328 -0.631 1.185 -0.282 -30.443 53.42
0.9770687920000114 0.374 -0.565 1.18 5.901 -29.916 52.55
0.9843149170000061 0.388 -0.551 1.172 6.802 -29.687 57.198
0.9965912080000123 0.446 -0.539 1.212 4.779 -27.336 60.916
1.0036971670000128 0.512 -0.522 1.235 4.282 -20.206 65.191
1.0158407499999953 0.54 -0.509 1.242 2.214 -11.099 64.725
1.022791333000015 0.522 -0.476 1.214 3.786 -4.649 61.031
1.0351719999999887 0.486 -0.475 1.18 4.733 -3.206 56.305
1.0477341670000158 0.493 -0.482 1.195 4.962 -4.29 53.878
1.0547041670000112 0.544 -0.517 1.215 7.588 -3.466 52.275
1.0670097080000005 0.571 -0.54 1.214 16.344 -3.618 57.282
1.0739854580000099 0.436 -0.7 1.158 30.626 -12.588 53.221
1.0862286249999897 0.613 -0.56 1.191 36.55 -6.046 67.351
1.0932558750000112 0.589 -0.567 1.174 42.969 -6.359 52.74
1.1057398750000118 0.607 -0.462 1.134 44.382 -1.595 56.282
1.1128032080000025 0.629 -0.41 1.12 43.214 1.382 56.046
1.125423000000012 0.611 -0.406 1.111 43.336 2.321 54.817
1.1375747499999989 0.621 -0.394 1.116 38.427 4.29 52.969
1.1448453749999885 0.634 -0.36 1.085 37.443 7.649 51.962
1.157021291999996 0.622 -0.344 1.071 32.916 11.489 48.282
1.1643688329999975 0.616 -0.364 1.042 29.847 14.954 45.008
1.1763990000000035 0.604 -0.328 0.932 24.702 17.168 35.58
1.1836529999999925 0.615 -0.379 0.999 29.412 19.962 41.26
1.1959386249999966 0.567 -0.407 0.97 32.748 19.908 39.924
1.2033019170000046 0.593 -0.457 0.997 36.87 18.214 41.237
1.2152433329999894 0.601 -0.435 0.948 42.389 20.076 39.42
1.2272707500000024 0.616 -0.376 0.979 36.489 22.382 38.641
1.2345651669999995 0.552 -0.297 0.911 33.435 25.748 35.053
1.2468288750000056 0.522 -0.242 0.878 30.58 27.359 27.595
1.2541566250000074 0.423 -0.261 0.874 26.595 24.954 20.542
1.2661884580000162 0.441 -0.262 0.832 29.87 22.947 14.382
1.2734639580000078 0.431 -0.301 0.846 34.107 19.115 12.321
1.2852547919999893 0.425 -0.322 0.841 35.71 16.336 10.008
1.297662250000002 0.451 -0.375 0.867 38.198 17.275 9.527
1.3047786250000115 0.452 -0.35 0.83 36.489 21.076 2.687
1.3172227080000027 0.486 -0.317 0.875 33.458 23.244 7.969
1.3245437920000143 0.423 -0.328 0.853 30.115 23.947 5.015
1.3368545829999903 0.346 -0.299 0.801 29.985 20.481 5.168
1.3441303330000096 0.305 -0.3 0.778 35.908 10.931 -2.847
1.356366333000011 0.3 -0.3 0.78 44.336 1.481 -5.496
1.3636839579999958 0.346 -0.275 0.808 49.359 -3.969 -5.519
1.375876333000008 0.364 -0.257 0.794 49.183 -4.374 -8.336
1.3877272080000012 0.376 -0.224 0.803 45.641 -3.733 -7.435
1.3950153330000035 0.363 -0.225 0.792 41.863 -1.931 -7.702
1.4072922500000118 0.338 -0.228 0.772 38.427 -0.321 -7.321
1.4145588750000115 0.322 -0.212 0.769 38.756 -0.328 -5.702
1.4266094580000015 0.303 -0.206 0.759 37.573 -1.122 -5.649
1.4338820830000145 0.296 -0.198 0.75 38.252 -1.824 -3.794
1.4458954579999954 0.285 -0.171 0.759 36.183 -3.015 -1.504
1.4534498749999898 0.288 -0.167 0.751 33.641 -4.366 0.794
1.4654534999999953 0.276 -0.176 0.742 33.832 -5.412 -0.13
1.477505167000004 0.284 -0.145 0.758 32.206 -4.908 -0.847
1.4847617920000005 0.268 -0.132 0.759 29.023 -3.252 -0.42
1.4970513330000017 0.255 -0.112 0.745 25.237 -3.115 -2.786
1.50433429200001 0.219 -0.103 0.729 22.824 -6.55 -3.031
1.5163602920000017 0.218 -0.124 0.74 21.504 -11.168 -5.733
1.5233878749999974 0.241 -0.143 0.741 21.977 -13.107 -8.176
1.5355162500000006 0.255 -0.133 0.771 20.87 -11.038 -8.603
1.5477344170000151 0.228 -0.14 0.767 16.656 -9.611 -7.443
1.5550073750000024 0.208 -0.115 0.762 14.679 -7.382 -8.206
1.567073042000004 0.203 -0.127 0.77 11.191 -5.252 -9.099
1.5743129580000073 0.198 -0.124 0.781 9.847 -2.939 -9.496
1.5866397919999997 0.186 -0.104 0.751 7.55 -1.16 -10.092
1.5938572080000029 0.182 -0.096 0.762 5.679 -0.374 -9.481
1.6058803749999981 0.158 -0.136 0.757 6.107 -1.42 -10.275
1.6133902079999984 0.166 -0.129 0.778 5.725 -3.809 -9.061
1.6254349579999996 0.174 -0.131 0.784 5.786 -7.008 -6.969
1.6377194579999923 0.192 -0.138 0.796 4.771 -7.489 -8.0
1.6450370830000054 0.213 -0.152 0.834 1.756 -6.298 -6.573
1.6572757920000072 0.232 -0.174 0.854 -0.542 -2.779 -5.679
1.6645269169999892 0.222 -0.159 0.856 -0.962 0.992 -5.611
1.6768400420000091 0.184 -0.137 0.857 -0.87 1.496 -6.496
1.6841521249999971 0.183 -0.118 0.876 -0.573 -0.137 -6.13
1.696104125000005 0.188 -0.116 0.885 0.008 -1.252 -6.496
1.7034044579999943 0.201 -0.109 0.904 -1.863 -1.328 -3.809
1.71565824999999 0.201 -0.108 0.913 -3.069 -1.084 -1.702
1.727713792000003 0.208 -0.12 0.912 -4.634 -0.511 -1.573
1.7349923749999903 0.197 -0.12 0.916 -6.275 -1.084 -0.595
1.7473498330000155 0.184 -0.13 0.922 -7.031 -2.511 1.565
1.7545436249999966 0.203 -0.145 0.944 -8.893 -3.099 2.756
1.766825707999999 0.214 -0.159 0.959 -9.099 -3.466 2.939
1.774148083 0.206 -0.162 0.947 -6.893 -3.336 2.206
1.7862807079999925 0.2 -0.17 0.962 -5.679 -6.023 1.947
1.793327750000003 0.199 -0.175 0.97 -3.687 -7.863 1.511
1.8057115420000116 0.234 -0.182 0.978 -2.321 -8.0 0.427
1.8128550000000132 0.24 -0.197 0.979 -0.595 -8.634 -0.71
1.8251060000000052 0.248 -0.2 0.982 -0.496 -7.557 -0.176
1.8372214999999983 0.242 -0.188 0.955 -0.076 -6.29 -0.847
1.844518832999995 0.238 -0.18 0.954 -0.046 -6.015 -1.389
1.8568053749999933 0.247 -0.179 0.957 0.244 -5.832 -0.29
1.8640974170000106 0.249 -0.165 0.964 -0.038 -5.008 0.771
1.8763994580000087 0.254 -0.148 0.941 0.855 -4.153 1.977
1.8839365830000077 0.244 -0.135 0.937 0.076 -4.511 2.84
1.8961621249999894 0.25 -0.142 0.942 -0.756 -4.954 4.489
1.9034197080000013 0.263 -0.149 0.95 -0.763 -3.931 4.359
1.9157093750000058 0.274 -0.159 0.942 -0.84 -2.191 3.534
1.9277065830000026 0.262 -0.139 0.934 -1.87 -0.809 2.641
1.9351973750000013 0.252 -0.119 0.935 -2.107 0.099 1.702
1.9474871669999914 0.249 -0.11 0.927 -4.107 0.626 0.29
1.9551095829999952 0.25 -0.12 0.929 -4.473 1.618 0.733
1.967299708000013 0.242 -0.122 0.919 -4.733 1.427 0.939
1.9745572500000037 0.247 -0.113 0.929 -6.046 1.053 1.687
1.9868061250000153 0.263 -0.117 0.933 -8.863 2.023 4.137
1.9943844580000132 0.259 -0.138 0.943 -11.771 3.702 5.634
