Time AX AY AZ GX GY GZ
0.013980500007164665 0.894 -0.442 0.421 -3.901 19.763 -44.29
0.026300541998352855 0.886 -0.454 0.426 -4.443 18.916 -44.176
0.038192374995560385 0.881 -0.461 0.413 -3.344 17.748 -43.237
0.04514849999395665 0.883 -0.483 0.404 -0.992 16.321 -43.977
0.057438624993665144 0.875 -0.491 0.4 1.74 14.84 -45.069
0.0643934999970952 0.902 -0.485 0.378 3.427 16.412 -45.71
0.0765681670018239 0.915 -0.455 0.406 3.74 17.588 -46.687
0.08366874999774154 0.914 -0.436 0.413 1.916 16.427 -45.534
0.09579045799910091 0.929 -0.425 0.42 -1.611 17.122 -44.595
0.10767199999827426 0.934 -0.434 0.402 -3.58 19.237 -43.794
0.1148713750008028 0.933 -0.453 0.399 -4.13 21.962 -42.939
0.12673741699836683 0.925 -0.46 0.397 -3.603 24.031 -42.374
0.13392533299338538 0.887 -0.467 0.427 -3.046 23.038 -42.206
0.1457729579997249 0.88 -0.446 0.433 -3.305 20.992 -42.328
0.15790441700664815 0.879 -0.455 0.445 -3.481 18.504 -42.504
0.16484199999831617 0.888 -0.449 0.421 -3.718 16.733 -42.305
0.17696970800170675 0.913 -0.469 0.406 -3.183 17.473 -42.954
0.18387325000367127 0.909 -0.474 0.398 -1.45 19.626 -43.183
0.195976957998937 0.885 -0.458 0.408 -1.557 20.145 -43.473
0.208194791994174 0.87 -0.448 0.425 -1.916 18.206 -43.305
0.21504770799947437 0.872 -0.443 0.413 -2.565 16.481 -43.015
0.22723545800545253 0.883 -0.447 0.442 -4.45 15.908 -42.817
0.23416987499513198 0.873 -0.446 0.428 -5.237 15.756 -42.71
0.24622579199785832 0.891 -0.461 0.417 -6.458 18.786 -43.427
0.258235125002102 0.862 -0.459 0.455 -7.458 20.198 -43.901
0.2653102920012316 0.858 -0.467 0.455 -8.038 19.237 -44.015
0.277301082998747 0.865 -0.473 0.446 -7.42 18.008 -44.45
0.2844271670037415 0.866 -0.476 0.458 -6.015 18.252 -45.45
0.2963407079951139 0.876 -0.457 0.456 -6.893 20.397 -46.214
0.3035372919985093 0.866 -0.454 0.478 -8.634 22.382 -47.496
0.31540183299512137 0.839 -0.433 0.516 -12.298 20.557 -47.42
0.3272335829969961 0.855 -0.427 0.53 -16.183 18.832 -47.328
0.3341196669935016 0.851 -0.43 0.533 -20.29 21.229 -47.557
0.3462636670010397 0.844 -0.438 0.538 -25.046 21.695 -48.153
0.3582232920016395 0.824 -0.449 0.516 -30.321 20.053 -47.977
0.3650423750077607 0.84 -0.458 0.547 -34.908 18.076 -49.053
0.3769147499988321 0.864 -0.498 0.521 -33.634 17.053 -50.16
0.38386979200004134 0.868 -0.479 0.493 -33.878 15.443 -50.359
0.3960352080030134 0.89 -0.477 0.45 -34.885 16.634 -50.405
0.4081068329978734 0.889 -0.496 0.461 -34.359 20.84 -50.847
0.4150003749964526 0.881 -0.506 0.411 -33.786 23.87 -51.237
0.4268214580079075 0.878 -0.523 0.396 -33.702 27.015 -51.176
0.43371179200767074 0.882 -0.525 0.386 -35.244 30.13 -52.595
0.44577550000394695 0.846 -0.553 0.397 -38.336 30.519 -53.359
0.45764158299425617 0.868 -0.554 0.368 -42.0 30.511 -53.634
0.46460229200602043 0.894 -0.587 0.327 -45.71 30.947 -54.359
0.47644291700271424 0.932 -0.602 0.298 -50.382 29.954 -53.702
0.4835607080021873 0.936 -0.614 0.258 -53.389 29.863 -53.985
0.49546166700019967 0.938 -0.615 0.26 -52.084 25.336 -54.496
0.5074049579998245 0.972 -0.599 0.228 -49.008 17.595 -53.328
0.5141369579941966 1.047 -0.612 0.202 -43.115 14.763 -53.351
0.5261564579996048 1.073 -0.595 0.198 -35.305 12.015 -52.0
0.5331374579982366 1.116 -0.575 0.198 -24.756 8.664 -48.519
0.5451041250053095 1.162 -0.537 0.165 -16.412 10.351 -45.885
0.5570414999965578 1.162 -0.509 0.141 -12.55 16.168 -42.443
0.5637858749978477 1.137 -0.458 0.159 -15.45 19.718 -38.786
0.5760636250051903 1.122 -0.434 0.176 -21.565 24.061 -34.0
0.5899379170004977 1.127 -0.463 0.18 -24.695 32.58 -31.305
0.5949621670006309 1.105 -0.479 0.155 -24.443 40.405 -29.321
0.6068487919983454 1.037 -0.468 0.164 -24.519 41.122 -26.763
0.613593750007567 0.961 -0.443 0.188 -27.802 34.229 -24.366
0.625916832999792 0.931 -0.462 0.192 -27.443 26.008 -23.71
0.637843917007558 0.869 -0.457 0.143 -25.107 12.466 -24.939
0.6446567079983652 0.839 -0.445 0.07 -22.695 -3.076 -25.374
0.656629958000849 0.887 -0.435 -0.063 -20.794 -9.794 -26.588
0.6630907500075409 0.917 -0.438 -0.188 -18.466 -10.786 -27.305
0.675086667004507 0.903 -0.443 -0.282 -13.107 -10.031 -25.656
0.6870772919937735 0.936 -0.434 -0.358 -6.221 -2.809 -24.832
0.6940783750033006 0.905 -0.438 -0.408 3.893 6.756 -26.26
0.7060478329949547 0.865 -0.41 -0.431 16.74 13.244 -26.931
0.7119758329936303 0.825 -0.384 -0.43 31.687 15.107 -29.076
0.7251102500013076 0.793 -0.362 -0.505 49.092 19.214 -29.389
0.7373021249950398 0.785 -0.378 -0.514 71.397 22.122 -34.237
0.7439239999948768 0.727 -0.352 -0.483 96.038 23.069 -38.374
0.7561282920069061 0.676 -0.333 -0.376 119.229 18.053 -45.634
0.767999667004915 0.867 2.0 2.0 -250.137 81.534 -80.664
0.7747471670008963 -0.136 -2.0 2.0 174.13 -152.573 94.496
0.7866894170001615 0.504 0.629 0.435 79.679 -250.137 -72.107
0.7931292499997653 1.153 -1.14 -2.0 -31.214 -171.718 -8.153
0.8054328750004061 2.0 -1.1 0.332 31.137 90.603 -92.847
0.8176700829935726 1.075 0.214 0.025 17.603 117.756 -93.634
0.8241738329961663 0.645 -0.124 -0.115 -4.969 156.534 -45.786
0.8362209579936462 0.515 -0.124 0.469 -15.107 114.031 -47.237
0.8420551250019344 0.487 -0.013 0.618 -18.0 45.725 -10.649
0.8551446670026053 0.989 -0.202 0.417 -25.313 14.366 10.618
0.867428583005676 1.168 -0.455 0.203 -23.115 44.588 16.885
0.8744077919982374 1.055 -0.651 0.398 -13.954 79.931 10.069
0.886420958006056 0.867 -0.647 0.518 -6.076 90.221 0.405
0.8934445829945616 0.761 -0.67 0.634 -5.0 90.832 -11.985
0.9054073330044048 0.612 -0.656 0.792 -5.198 70.718 -26.359
0.9176093330024742 0.552 -0.593 0.817 -13.969 34.916 -35.214
0.9245315419975668 0.658 -0.608 0.725 -27.328 5.359 -42.427
0.9365387080033543 0.769 -0.648 0.545 -38.771 -9.664 -52.13
0.9431254170049215 0.831 -0.639 0.366 -48.672 -16.183 -58.916
0.955146499996772 0.926 -0.658 0.242 -51.695 -12.046 -63.145
0.967218125006184 0.978 -0.606 0.094 -54.305 -1.244 -65.702
0.9739415829972131 1.023 -0.596 -0.021 -53.427 11.351 -62.725
0.9859819580015028 1.034 -0.592 -0.102 -49.481 23.16 -57.26
0.997973292003735 1.005 -0.589 -0.146 -43.0 31.221 -50.779
1.0049409579951316 0.969 -0.598 -0.198 -36.511 34.321 -45.122
1.016716208003345 0.947 -0.595 -0.273 -31.947 36.618 -41.351
1.0232060419948539 0.906 -0.613 -0.312 -27.87 37.58 -40.374
1.0354310830007307 0.886 -0.621 -0.385 -21.939 38.985 -39.206
1.0475000830047065 0.858 -0.66 -0.46 -12.084 37.908 -40.008
1.0542580420005834 0.859 -0.688 -0.562 2.702 37.901 -39.664
1.0666880829958245 0.82 -0.704 -0.598 22.489 36.13 -41.198
1.0781532499968307 0.764 -0.655 -0.631 44.603 29.084 -43.008
1.0848540830047568 0.752 -0.58 -0.689 59.366 21.985 -44.87
1.0971302919933805 0.765 -0.514 -0.727 67.87 24.405 -48.29
1.103899541994906 0.77 -0.453 -0.757 74.511 29.229 -51.344
1.1158432499942137 0.787 -0.42 -0.895 79.809 35.786 -51.634
1.127906042005634 0.851 -0.447 -1.002 91.542 52.733 -51.015
1.1346224169974448 0.839 -0.472 -0.893 120.008 72.435 -53.863
1.1467755420017056 0.681 -0.376 -0.614 155.366 78.076 -55.427
1.1533660419954685 0.375 -2.0 2.0 31.107 201.618 73.351
1.1655272920033894 0.002 -1.233 1.816 173.267 -250.137 -31.473
1.1776227920054225 0.372 0.312 -2.0 -6.557 -240.588 3.618
1.1840909580059815 2.0 -1.593 1.806 -47.16 174.847 -15.527
1.1964206249976996 0.686 0.068 1.194 -54.176 75.977 -79.115
1.2019944579951698 0.493 -0.514 -0.235 -36.176 119.382 -33.84
1.2152256249974016 0.359 -0.568 -0.089 -32.031 97.794 -65.13
1.2271402500045951 0.052 -0.402 0.542 -10.374 19.542 -62.71
1.2339597079990199 0.569 -0.389 0.441 -1.168 -26.382 -47.557
1.2459293749998324 1.002 -0.568 0.259 -3.855 -3.107 -54.634
1.2581935829948634 0.89 -0.665 0.273 2.672 51.466 -55.412
1.2654501250071917 0.905 -0.684 0.443 22.519 71.206 -65.656
1.2772483750013635 0.827 -0.598 0.384 36.679 86.168 -59.863
1.2842662920011207 0.814 -0.638 0.537 58.198 84.786 -69.618
1.2962989999941783 0.652 -0.503 0.552 69.634 68.641 -67.489
1.3031831249973038 0.735 -0.491 0.532 72.038 53.26 -72.366
1.3151710420061136 0.688 -0.351 0.614 50.038 39.176 -78.664
1.3274622080061818 0.681 -0.344 0.726 21.321 10.74 -79.206
1.3344174999947427 0.823 -0.409 0.632 2.557 1.542 -84.847
1.3466761250019772 0.869 -0.47 0.526 -2.153 -0.534 -87.977
1.3533913749997737 0.934 -0.494 0.417 0.328 -0.565 -86.641
1.3660853750043316 1.002 -0.544 0.352 8.687 5.061 -84.779
1.3782426670077257 0.988 -0.506 0.299 16.221 9.053 -79.687
1.385119583006599 0.979 -0.476 0.287 18.603 10.931 -72.221
1.3972080420062412 1.0 -0.459 0.313 19.366 14.962 -68.351
1.4039783750049537 0.961 -0.4 0.348 13.412 13.794 -66.122
1.416385167001863 0.959 -0.395 0.333 7.092 10.481 -62.076
1.42186583300645 1.005 -0.409 0.297 -2.649 14.061 -61.351
1.4354196670028614 0.997 -0.467 0.282 -10.427 21.206 -60.466
1.447268542004167 0.977 -0.498 0.29 -13.595 23.16 -59.618
1.4541299999982584 0.968 -0.516 0.275 -14.366 22.023 -58.366
1.4660477500001434 0.979 -0.52 0.243 -12.664 22.206 -58.336
1.4781598749978002 0.986 -0.493 0.232 -12.817 24.893 -58.74
1.485152499997639 0.973 -0.466 0.267 -13.366 22.183 -57.26
1.4969023750018096 0.968 -0.462 0.304 -10.534 12.794 -54.015
1.504243832998327 1.012 -0.451 0.26 -7.145 7.443 -51.557
1.5162722499953816 1.027 -0.448 0.263 -3.931 6.954 -50.725
1.5221045829966897 1.039 -0.415 0.244 -2.763 8.458 -49.046
1.5353252500062808 1.057 -0.405 0.231 -4.176 13.534 -47.733
1.5475329170003533 1.052 -0.397 0.248 -7.702 21.244 -47.405
1.5544445419945987 1.007 -0.394 0.263 -11.176 23.435 -46.046
1.5663053750031395 0.985 -0.427 0.274 -11.084 21.763 -44.183
1.5719995420076884 0.983 -0.449 0.255 -9.26 21.435 -44.198
1.5852524170040851 0.959 -0.463 0.262 -4.405 20.962 -43.992
1.5975011669943342 0.956 -0.462 0.257 1.603 20.389 -44.122
1.6046264580072602 0.945 -0.429 0.283 4.786 18.802 -43.954
1.616710750007769 0.925 -0.392 0.312 3.153 14.939 -43.618
1.6233613749936922 0.955 -0.4 0.316 1.099 14.359 -42.504
1.6359967080061324 0.97 -0.424 0.3 0.557 17.069 -41.893
1.6479953749949345 0.963 -0.418 0.304 0.221 21.679 -41.885
1.655085999998846 0.964 -0.439 0.318 0.115 26.603 -41.656
1.6672258750040783 0.955 -0.443 0.321 2.237 30.107 -41.756
1.6741017500025919 0.943 -0.449 0.309 5.313 33.038 -41.954
1.6866857499990147 0.925 -0.458 0.356 9.611 34.504 -41.992
1.6931451669952367 0.909 -0.453 0.349 14.252 34.244 -42.336
1.705523541997536 0.89 -0.435 0.345 16.908 31.802 -43.008
1.7173848329985049 0.861 -0.382 0.384 13.305 23.389 -43.092
1.724800583004253 0.886 -0.385 0.405 9.649 16.832 -41.511
1.736876167007722 0.927 -0.391 0.373 8.023 15.252 -41.115
1.7440450830035843 0.931 -0.397 0.391 6.061 17.115 -41.542
1.7559135420015082 0.919 -0.402 0.396 4.336 16.809 -42.382
1.7683772500022314 0.923 -0.4 0.385 2.832 17.985 -41.794
1.7749620829999913 0.95 -0.403 0.373 1.397 22.809 -42.908
1.787190292001469 0.918 -0.384 0.396 -1.069 23.947 -43.405
1.7939830830000574 0.889 -0.385 0.41 -2.832 22.298 -43.099
1.80613737499516 0.893 -0.399 0.404 -3.664 18.664 -42.359
1.8117836669989629 0.902 -0.424 0.392 -3.832 15.389 -41.527
1.825127917007194 0.91 -0.436 0.372 -3.695 16.29 -41.901
1.8375011250027455 0.901 -0.447 0.373 -2.802 17.168 -42.557
1.8442590829945402 0.917 -0.434 0.369 -2.756 17.687 -42.779
1.8564674999943236 0.921 -0.416 0.377 -4.908 20.397 -43.084
1.8631619999941904 0.9 -0.417 0.381 -5.962 21.351 -43.374
1.8755198750004638 0.886 -0.424 0.364 -5.435 19.374 -43.267
1.8875577080034418 0.894 -0.438 0.363 -4.359 17.802 -43.252
1.894455667003058 0.889 -0.44 0.361 -3.351 17.702 -44.702
1.9064304579951568 0.872 -0.441 0.365 -2.115 14.626 -45.427
1.9134321250021458 0.903 -0.455 0.353 -0.557 11.58 -45.855
1.9255532920069527 0.918 -0.467 0.356 -1.252 10.855 -46.84
1.9377001249958994 0.956 -0.507 0.357 -3.244 12.298 -47.573
1.9444443749962375 0.988 -0.518 0.305 -6.527 14.481 -49.092
1.9566226250026375 1.028 -0.523 0.286 -4.626 20.687 -50.153
1.9636129169957712 1.031 -0.482 0.31 1.374 23.008 -51.382
1.975893291993998 1.003 -0.397 0.378 4.053 18.076 -49.076
1.9881693329953123 1.019 -0.372 0.403 4.763 12.771 -45.885
1.9949043329979759 1.034 -0.368 0.371 4.084 14.336 -43.748
2.0072983330028364 1.041 -0.379 0.358 4.466 17.84 -41.74
2.0141745419969084 1.024 -0.388 0.352 5.145 22.344 -39.305
2.0264390420052223 0.967 -0.378 0.38 4.618 23.817 -37.916
2.0334855420078384 0.931 -0.388 0.385 3.275 24.092 -36.924
2.0457231670006877 0.899 -0.406 0.377 1.977 23.718 -37.435
2.0579360830015503 0.882 -0.41 0.375 0.298 21.595 -37.901
2.064675375004299 0.911 -0.415 0.385 -0.145 20.382 -38.366
2.07691462499497 0.905 -0.415 0.393 0.336 17.672 -38.542
2.084308958001202 0.912 -0.417 0.369 1.023 15.687 -38.84
2.0961030830076197 0.92 -0.424 0.36 1.55 14.74 -38.481
2.1018460420018528 0.942 -0.428 0.355 2.664 14.389 -38.031
2.1152002080052625 0.941 -0.434 0.36 4.748 14.695 -37.519
2.127444875004585 0.93 -0.421 0.353 5.794 13.962 -37.527
2.134384874996613 0.926 -0.401 0.366 4.794 14.74 -39.458
2.146695332994568 0.935 -0.381 0.378 2.13 15.244 -40.191
2.1538297920051264 0.938 -0.372 0.35 -1.328 16.382 -40.664
2.1657495830004336 0.952 -0.378 0.346 -4.893 18.435 -40.824
2.177930749996449 0.942 -0.389 0.354 -6.55 19.802 -40.275
2.1850515419937437 0.936 -0.417 0.343 -5.885 20.427 -40.0
2.1969257919990923 0.922 -0.444 0.327 -3.267 20.847 -40.176
2.2036510830075713 0.908 -0.443 0.334 -0.366 20.069 -41.328
2.2160136250022333 0.909 -0.415 0.355 0.45 17.916 -41.863
2.2282474579988047 0.915 -0.412 0.37 -0.275 15.901 -42.168
2.2349749999993946 0.936 -0.421 0.36 -0.718 15.885 -42.206
2.2472442500002217 0.948 -0.434 0.34 -0.962 18.58 -42.542
2.2543152080033906 0.94 -0.428 0.343 -1.313 21.237 -42.191
2.2664928330050316 0.943 -0.434 0.357 -0.855 22.908 -41.588
2.2723500830034027 0.929 -0.438 0.368 0.664 22.122 -41.382
2.2852490420045797 0.912 -0.446 0.354 2.725 21.908 -41.374
2.2975791250064503 0.91 -0.431 0.365 3.298 21.0 -41.962
2.304516667005373 0.912 -0.401 0.386 1.962 17.954 -41.931
2.316714917003992 0.924 -0.399 0.39 -0.664 16.115 -41.534
2.3235302079992834 0.937 -0.408 0.37 -2.687 17.901 -41.565
2.3357112079975195 0.936 -0.425 0.37 -2.763 19.55 -40.962
2.3476569170015864 0.933 -0.444 0.345 -1.443 21.664 -40.458
2.3547767080017366 0.914 -0.445 0.359 -0.565 23.473 -41.122
2.366672624993953 0.883 -0.433 0.376 -0.656 22.076 -41.611
2.3737641670013545 0.9 -0.423 0.378 -1.916 19.962 -41.985
2.3857358749955893 0.915 -0.42 0.396 -3.0 18.565 -42.107
2.3980086670053424 0.929 -0.427 0.376 -3.328 17.817 -41.427
2.4046510829939507 0.935 -0.432 0.368 -3.481 19.099 -41.672
2.41696887499711 0.937 -0.434 0.377 -2.489 20.725 -42.069
2.4239539169939235 0.925 -0.439 0.374 -0.489 20.145 -41.519
2.4362988750071963 0.929 -0.453 0.36 2.336 19.771 -41.328
2.448264417005703 0.906 -0.423 0.365 2.641 19.603 -41.863
2.4553635000047507 0.918 -0.398 0.391 -0.099 18.382 -41.779
2.4673273749940563 0.933 -0.398 0.394 -3.977 18.695 -41.443
2.474224999998114 0.942 -0.418 0.367 -5.611 20.817 -40.885
2.4863109580037417 0.948 -0.432 0.351 -5.244 24.786 -40.618
2.493565374999889 0.927 -0.428 0.376 -5.069 26.863 -40.305
2.5051102919969708 0.906 -0.446 0.392 -5.031 26.359 -40.626
2.517506832999061 0.902 -0.454 0.388 -3.55 24.748 -41.214
2.5243849999969825 0.899 -0.455 0.375 -1.618 22.389 -41.786
