Time AX AY AZ GX GY GZ
0.0137089169875253 0.447 0.585 0.976 -29.382 2.832 -30.13
0.02589591698779259 0.452 0.592 0.982 -37.115 -4.878 -25.489
0.03272012498928234 0.494 0.551 0.994 -39.489 -8.985 -20.16
0.04506412499176804 0.538 0.516 0.987 -35.191 -8.962 -16.603
0.05203504199744202 0.537 0.542 0.959 -31.641 -7.153 -13.031
0.06378304198733531 0.55 0.557 0.964 -29.389 -8.656 -7.053
0.07622520899167284 0.619 0.584 0.965 -29.023 -6.672 -0.305
0.08336433398653753 0.615 0.614 0.987 -39.847 -4.29 6.603
0.09552862499549519 0.579 0.611 1.055 -53.229 -6.634 15.397
0.10275041699060239 0.517 0.582 1.105 -65.489 -20.16 23.336
0.11439516699465457 0.508 0.538 1.088 -73.954 -30.786 31.038
0.12670141700073145 0.524 0.469 1.047 -76.985 -33.634 31.481
0.13365124999836553 0.513 0.433 0.979 -76.863 -33.305 28.435
0.14578974999312777 0.52 0.42 0.912 -78.855 -28.847 21.748
0.15282979198673274 0.532 0.409 0.901 -83.763 -23.298 13.847
0.1646176249923883 0.533 0.405 0.946 -90.076 -22.099 8.931
0.17158445899258368 0.514 0.449 1.002 -100.412 -32.595 7.534
0.18389354199462105 0.502 0.442 1.04 -113.038 -47.863 10.115
0.19578487498802133 0.532 0.389 1.068 -120.145 -62.466 14.061
0.20247570899664424 0.484 0.402 1.11 -128.511 -85.931 20.122
0.21423433399468195 0.495 0.393 1.152 -137.527 -112.145 28.794
0.22640174999833107 0.635 0.26 1.134 -131.656 -124.107 32.779
0.233379833996878 0.701 0.191 1.05 -116.244 -115.588 28.771
0.24508733399852645 0.702 0.203 0.974 -103.038 -106.031 22.618
0.2521980839956086 0.708 0.227 0.933 -104.198 -97.969 15.656
0.2641954589926172 0.742 0.211 0.958 -109.71 -88.931 8.435
0.2761508749972563 0.688 0.204 1.015 -118.481 -91.153 1.718
0.283089459000621 0.647 0.169 1.044 -126.702 -104.893 0.221
0.2949876249913359 0.701 0.077 1.018 -128.328 -115.611 -2.412
0.3017757499910658 0.75 0.036 0.957 -125.191 -123.763 -5.702
0.3136995419918094 0.761 0.022 0.92 -122.855 -130.298 -7.847
0.3255173340003239 0.792 0.013 0.873 -120.359 -137.137 -8.023
0.3322958749922691 0.876 -0.001 0.781 -117.74 -140.221 -6.725
0.34420862499973737 0.919 0.017 0.688 -120.053 -141.557 -6.038
0.3561173339985544 0.942 -0.002 0.632 -120.481 -140.985 -2.389
0.36281933399732225 0.978 -0.05 0.571 -114.733 -143.504 2.466
0.37508029199671 1.023 -0.087 0.513 -102.969 -144.038 8.908
0.38066895899828523 1.073 -0.119 0.406 -94.58 -137.595 13.824
0.39346658399153966 1.031 -0.102 0.36 -89.076 -133.137 19.13
0.4052719169994816 1.016 -0.083 0.358 -90.176 -136.771 26.214
0.4123617919976823 1.02 -0.109 0.296 -93.939 -135.046 32.664
0.4240855839889264 0.95 -0.161 0.311 -92.405 -135.046 36.313
0.4361036669870373 0.873 -0.161 0.297 -87.672 -143.794 42.374
0.4428369999950519 0.924 -0.175 0.164 -85.779 -145.817 45.359
0.4549864169966895 0.988 -0.214 0.051 -85.855 -134.282 42.931
0.46655408399237785 1.018 -0.254 -0.023 -83.55 -116.962 36.779
0.47351229199557565 1.028 -0.272 -0.073 -79.137 -98.519 29.573
0.4854049169953214 0.991 -0.323 -0.098 -70.115 -85.954 23.718
0.4922989589977078 0.944 -0.286 -0.186 -59.405 -81.328 21.237
0.5043094169959659 0.945 -0.258 -0.238 -54.16 -82.137 18.412
0.5162328749865992 0.914 -0.234 -0.218 -47.412 -84.122 16.221
0.522659833994112 0.896 -0.228 -0.298 -39.206 -83.817 15.458
0.5347876249870751 0.919 -0.273 -0.459 -33.206 -76.832 12.702
0.5407283749955241 0.94 -0.306 -0.692 -29.534 -55.221 7.511
0.5536490839876933 0.959 -0.344 -0.944 -29.855 -25.45 1.855
0.5656403339962708 0.95 -0.358 -1.086 -23.45 -6.458 0.313
0.5729232919984497 0.968 -0.433 -1.051 5.481 2.092 1.885
0.5851520839933073 0.983 -0.578 -0.772 81.794 9.595 -1.962
0.5921057089872193 0.9 -0.521 -0.704 178.443 18.046 -9.947
0.6039824999897974 0.79 -0.301 -0.705 241.939 22.412 -19.962
0.6156887089891825 -2.0 2.0 2.0 -250.137 -250.137 -39.328
0.622542708995752 2.0 -2.0 2.0 250.13 147.71 58.557
0.6344622499891557 0.332 1.54 0.164 68.481 -250.023 -82.779
0.646322833999875 1.343 -0.348 -2.0 -147.206 30.244 18.275
0.6532624169922201 2.0 -0.773 1.572 -59.756 128.901 -29.847
0.6653750839905115 0.311 -0.276 1.026 14.038 50.878 -27.023
0.6723472089943243 0.03 -0.084 -0.007 -0.42 34.015 -17.641
0.6842166669957805 0.312 -0.319 0.13 -30.802 -12.328 -27.107
0.6960724999953527 0.45 -0.36 0.376 -31.153 -30.58 -38.023
0.7028024169994751 0.845 -0.356 0.349 -26.351 -50.916 -41.603
0.7146910419978667 1.109 -0.374 0.247 -23.725 -44.458 -37.58
0.7206602089863736 1.401 -0.459 0.278 -18.817 -6.42 -38.191
0.7336374589940533 1.213 -0.413 0.367 -16.55 22.702 -44.809
0.7457260839873925 0.988 -0.347 0.435 -20.962 25.924 -42.557
0.752645541986567 0.996 -0.356 0.383 -31.954 25.084 -40.733
0.7644746669975575 1.012 -0.372 0.307 -43.397 27.275 -39.099
0.7768100839894032 1.009 -0.406 0.187 -52.519 30.977 -37.26
0.7833553339878563 0.996 -0.476 0.132 -53.916 33.885 -36.55
0.79529249999905 0.956 -0.481 0.048 -49.321 31.718 -37.649
0.8019719999865629 0.9 -0.462 -0.012 -45.817 25.458 -37.13
0.814044874990941 0.895 -0.423 -0.135 -49.069 21.42 -36.198
0.8260437499993714 0.928 -0.417 -0.288 -54.473 23.779 -36.947
0.8324769589962671 0.936 -0.487 -0.412 -55.336 31.954 -39.527
0.8445531249890337 0.896 -0.534 -0.52 -46.901 38.328 -41.931
0.8565115419914946 0.888 -0.548 -0.624 -34.702 43.916 -44.176
0.8632847089902498 0.863 -0.563 -0.668 -15.962 46.267 -46.565
0.8755106669996167 0.821 -0.555 -0.719 6.351 42.267 -48.099
0.8822563749999972 0.796 -0.499 -0.838 27.878 35.031 -46.962
0.8942647499934537 0.866 -0.413 -1.025 43.046 36.718 -47.321
0.9062539999868022 0.88 -0.384 -1.111 56.115 46.275 -48.74
0.9131371249968652 0.907 -0.354 -1.164 78.443 60.962 -49.328
0.9254010419972474 0.886 -0.259 -1.149 99.206 74.16 -51.069
0.9318163339921739 0.829 -0.18 -0.962 118.435 83.603 -49.962
0.9439422499999637 0.787 -0.119 -0.749 138.725 84.893 -47.458
0.955873041995801 2.0 2.0 -2.0 -250.137 250.13 -29.427
0.9627831249963492 2.0 -2.0 2.0 110.481 235.977 17.374
0.9747174999938579 0.245 0.398 2.0 150.099 -153.763 -74.42
0.9865533339907415 0.251 0.239 -2.0 -20.649 -138.0 19.115
0.9934503339900402 2.0 -1.488 0.705 -33.84 103.023 3.237
1.0056107089912985 1.149 -0.183 0.63 5.061 116.427 -73.069
1.0125994169939077 0.251 -0.25 -0.034 5.481 154.802 -36.031
1.02438216698647 0.162 -0.188 0.502 -20.069 89.473 -53.298
1.0366442919912515 0.153 -0.252 0.505 -21.748 22.42 -49.16
1.0434738749900134 0.713 -0.398 0.397 -18.725 1.038 -48.618
1.0556296669965377 0.962 -0.543 0.331 -9.336 5.542 -51.267
1.0625297919905279 1.056 -0.62 0.392 10.313 25.061 -46.26
1.0747642499918584 1.073 -0.67 0.437 33.641 53.069 -52.366
1.0803161669900874 0.9 -0.57 0.574 50.366 65.718 -58.557
1.0938710839982377 0.768 -0.49 0.717 61.634 55.252 -60.573
1.105869791994337 0.79 -0.423 0.71 70.649 29.153 -55.954
1.112782291995245 0.878 -0.398 0.645 71.733 8.924 -55.725
1.124912333994871 0.804 -0.212 0.688 50.641 -23.992 -50.481
1.1318634589988505 0.978 -0.29 0.618 29.275 -25.046 -53.038
1.1436972499941476 0.995 -0.335 0.533 13.771 -18.282 -60.099
1.155824458997813 1.019 -0.38 0.438 9.13 -7.985 -65.229
1.1629993339884095 1.026 -0.374 0.322 6.656 -4.206 -68.244
1.175185916988994 1.055 -0.394 0.22 4.084 -2.969 -65.313
1.1821313749969704 1.079 -0.417 0.182 3.893 -1.168 -60.183
1.194194208990666 1.113 -0.451 0.215 12.504 3.702 -56.076
1.2063284999894677 1.07 -0.44 0.202 25.641 12.153 -54.496
1.2132381249975879 1.062 -0.394 0.236 32.74 24.534 -54.687
1.2254038339888211 0.986 -0.296 0.264 26.908 31.115 -57.565
1.2326036669983296 0.926 -0.226 0.314 9.58 31.855 -55.366
1.2444601669994881 0.969 -0.259 0.309 -8.229 34.031 -55.313
1.2565872089908225 0.962 -0.287 0.291 -20.107 36.0 -55.313
1.2635020419984357 0.94 -0.358 0.276 -21.153 35.0 -55.084
1.275413249997655 0.922 -0.392 0.209 -14.221 31.153 -54.519
1.2822201249946374 0.917 -0.402 0.175 -5.87 27.198 -54.023
1.2945213749917457 0.93 -0.399 0.166 0.328 26.802 -53.214
1.3065737500000978 0.895 -0.377 0.174 3.565 26.939 -53.824
1.3137563339987537 0.872 -0.382 0.217 5.397 24.985 -55.183
1.3258662089938298 0.876 -0.381 0.208 7.13 20.908 -57.382
1.3330409999907715 0.913 -0.397 0.211 9.061 22.122 -59.947
1.344987124990439 0.925 -0.382 0.196 11.374 24.924 -62.962
1.3522252919938182 0.933 -0.35 0.195 12.008 26.908 -63.977
1.3641213749942835 0.941 -0.309 0.207 7.885 28.58 -64.237
1.3765935419942252 0.925 -0.286 0.229 1.702 29.74 -64.305
1.3832847089943243 0.896 -0.288 0.245 -3.336 28.336 -64.328
1.3954393749882001 0.872 -0.295 0.276 -5.672 21.313 -62.626
1.4022741669905372 0.91 -0.335 0.264 -4.443 14.87 -60.275
1.4144661249883939 0.937 -0.366 0.251 -0.221 12.008 -61.176
1.42645333398832 0.918 -0.396 0.239 6.588 9.954 -62.832
1.4336574169865344 0.938 -0.404 0.235 15.733 7.794 -65.107
1.445871833988349 0.951 -0.395 0.238 24.977 4.252 -67.687
1.45290349998686 0.966 -0.344 0.243 30.496 -0.985 -69.786
1.464946208987385 0.987 -0.308 0.259 31.656 -4.779 -70.939
1.4718374169897288 1.015 -0.25 0.273 28.359 -6.282 -70.382
1.4839500419911928 1.029 -0.175 0.311 16.74 -9.076 -67.939
1.4960654589958722 1.105 -0.182 0.323 6.878 -6.634 -63.924
1.503017541996087 1.135 -0.194 0.313 -0.198 0.351 -60.573
1.5151469589909539 1.151 -0.23 0.282 -4.031 8.557 -56.458
1.522203124986845 1.135 -0.264 0.261 -2.786 14.565 -54.221
1.5344522499945015 1.121 -0.271 0.238 0.229 20.489 -52.359
1.5466036249999888 1.078 -0.267 0.245 3.168 23.305 -51.824
1.5535454589989968 1.044 -0.279 0.27 8.275 22.511 -50.756
1.5657084589911392 1.031 -0.255 0.266 10.519 20.595 -49.679
1.5728854169865372 1.019 -0.251 0.276 9.153 19.58 -49.511
1.5850759999884758 0.985 -0.238 0.305 6.443 16.824 -49.267
1.591843958987738 0.992 -0.232 0.321 1.947 13.198 -47.74
1.6039852089888882 1.014 -0.239 0.309 -0.756 12.313 -47.206
1.6161177920002956 1.001 -0.236 0.307 -3.122 11.183 -46.977
1.6230435839970596 0.979 -0.258 0.339 -4.198 8.031 -45.443
1.635140208993107 1.02 -0.426 0.323 -2.969 5.305 -44.504
1.6423680419975426 1.087 -0.424 0.178 -7.832 8.878 -46.458
1.6542217919923132 1.138 -0.42 0.109 -12.397 21.389 -53.885
1.6663026249880204 1.12 -0.402 0.186 -8.282 28.725 -60.122
1.6735753749962896 1.094 -0.347 0.26 3.183 22.397 -59.115
1.685390083992388 1.135 -0.306 0.278 17.382 13.771 -54.282
1.6925420419865986 1.156 -0.248 0.252 25.023 11.695 -50.16
1.7044423339975765 1.157 -0.212 0.273 27.099 16.534 -46.244
1.716574624995701 1.112 -0.186 0.284 27.351 22.45 -44.099
1.7234991250006715 1.082 -0.183 0.283 24.565 28.229 -41.947
1.7356632919982076 1.027 -0.146 0.32 15.977 32.664 -40.794
1.7426132919936208 0.984 -0.142 0.371 6.092 34.267 -38.504
1.754709874992841 0.962 -0.172 0.378 -0.214 33.779 -37.817
1.7619571249961155 0.913 -0.199 0.349 -5.099 32.466 -37.954
1.7737399170000572 0.896 -0.236 0.323 -8.275 30.519 -38.847
1.7860402919905027 0.868 -0.257 0.326 -8.0 27.237 -40.542
1.7926662089885212 0.853 -0.285 0.309 -5.076 20.542 -41.496
1.8048769589950098 0.871 -0.301 0.289 0.168 13.809 -42.321
1.8122307499870658 0.908 -0.317 0.264 6.763 11.229 -45.313
1.8242846249922877 0.931 -0.302 0.255 12.313 11.183 -48.718
1.836151499999687 0.97 -0.271 0.253 16.198 12.702 -51.015
1.8432967919943621 1.005 -0.231 0.26 17.008 15.985 -53.122
1.8553941669961205 1.013 -0.208 0.281 16.107 20.061 -54.588
1.8623433339962503 0.996 -0.161 0.304 12.496 20.817 -54.786
1.8745501669909572 1.009 -0.163 0.303 8.504 21.893 -52.939
1.8866854169900762 1.028 -0.188 0.292 6.802 24.763 -51.481
1.8937096669978928 1.012 -0.215 0.294 7.214 26.489 -50.046
1.9056398749962682 1.02 -0.226 0.298 9.435 27.382 -48.702
1.912772749987198 1.023 -0.24 0.302 11.679 28.817 -49.374
1.9246969999949215 1.026 -0.239 0.298 13.252 30.496 -50.504
1.932017791987164 1.024 -0.221 0.32 13.656 31.863 -51.672
1.9437069169944152 1.027 -0.22 0.357 14.443 31.954 -53.046
1.9558587089995854 1.013 -0.208 0.378 14.687 29.847 -53.947
1.9627732089866186 1.021 -0.213 0.376 15.954 27.458 -53.153
1.974932708995766 1.039 -0.192 0.354 14.405 26.702 -52.916
1.9818282919877674 1.021 -0.183 0.383 10.481 23.366 -50.931
1.9939197089988738 1.022 -0.191 0.399 8.954 20.282 -49.198
2.006075208992115 1.025 -0.208 0.379 8.565 18.931 -48.122
2.013247208989924 1.039 -0.221 0.348 9.107 19.916 -48.084
2.0254625419911463 1.04 -0.224 0.328 9.313 22.344 -48.183
2.032251249998808 1.032 -0.227 0.332 10.031 23.939 -48.84
2.044644124995102 1.032 -0.226 0.33 11.794 25.863 -49.328
2.0565033339953516 1.022 -0.201 0.332 11.916 26.656 -49.282
2.063233291992219 1.016 -0.187 0.339 9.695 27.359 -49.16
2.075654249987565 1.006 -0.178 0.355 6.817 27.214 -49.198
2.0828913749865023 0.99 -0.168 0.364 4.076 25.168 -47.557
2.0949068749905564 1.008 -0.172 0.355 1.931 23.115 -46.092
2.1021090419963 1.003 -0.17 0.352 0.504 20.924 -44.305
2.114221499999985 1.008 -0.189 0.346 0.252 20.855 -43.786
2.1260445839870954 1.02 -0.191 0.335 -1.252 24.649 -44.046
2.1332940419961233 1.017 -0.201 0.335 -2.863 29.237 -45.405
2.1451669999951264 0.999 -0.224 0.337 -2.069 31.817 -46.473
2.1524280839948915 0.98 -0.227 0.351 0.115 32.672 -47.191
2.1644307089882204 0.971 -0.218 0.34 1.603 32.962 -47.885
2.1769428339903243 0.963 -0.188 0.373 0.542 30.053 -48.023
2.1839953339949716 0.964 -0.19 0.389 0.069 26.939 -47.267
2.1959700839943253 0.957 -0.196 0.391 1.145 23.595 -47.366
2.2028209999989485 0.956 -0.171 0.385 0.092 19.046 -46.664
2.2149574999930337 0.976 -0.171 0.387 -2.664 16.351 -46.336
2.221859333993052 0.999 -0.184 0.384 -3.733 16.443 -46.603
2.234059083988541 1.002 -0.189 0.347 -3.511 17.015 -46.397
2.2461244169971906 1.002 -0.209 0.321 -2.221 19.427 -46.947
2.2529845419921912 1.011 -0.189 0.326 -2.679 22.092 -48.985
2.265143458993407 0.989 -0.187 0.348 -2.634 21.977 -48.771
2.27212233399041 0.995 -0.182 0.364 -1.26 20.351 -47.733
2.28410299999814 0.995 -0.196 0.347 1.458 17.931 -46.84
2.296460583995213 1.018 -0.2 0.31 3.695 18.55 -46.466
2.303308583999751 1.037 -0.18 0.312 3.618 22.458 -48.015
2.315593084000284 1.006 -0.165 0.358 3.397 23.099 -47.664
2.3221893339941744 1.006 -0.163 0.362 3.321 22.443 -47.229
2.3345852919883328 1.015 -0.18 0.352 3.321 23.344 -47.344
2.341504874988459 1.013 -0.171 0.357 2.611 24.679 -47.496
2.35378295899136 0.997 -0.157 0.377 0.099 24.107 -47.183
2.366083708999213 0.996 -0.167 0.388 -0.198 22.786 -46.809
2.37284495899803 0.994 -0.176 0.382 -0.496 21.45 -46.496
2.384916916998918 1.005 -0.189 0.359 -0.252 22.802 -46.382
2.3917748749954626 1.008 -0.175 0.352 -1.321 24.885 -47.206
2.4040548339980887 0.978 -0.174 0.396 -2.198 23.634 -47.046
2.4160480839927914 0.98 -0.172 0.402 -1.473 19.557 -45.931
2.4229206669988343 1.003 -0.178 0.367 -1.145 18.031 -45.527
2.434986541993567 1.017 -0.186 0.362 -1.359 19.053 -46.336
2.4420218339946587 1.009 -0.181 0.385 0.198 19.008 -46.366
2.454350333995535 1.001 -0.186 0.389 2.626 16.519 -45.237
2.4665546670003096 1.031 -0.165 0.36 2.885 17.252 -45.344
2.4737577499909094 1.014 -0.156 0.362 1.145 16.298 -45.145
2.485802999988664 1.041 -0.168 0.352 0.252 18.168 -45.252
2.492601958991145 1.034 -0.169 0.345 -0.427 21.496 -45.733
2.5048578749992885 1.033 -0.182 0.347 1.0 22.901 -45.366
2.5118953749915818 1.032 -0.185 0.346 2.863 23.374 -45.29
2.5243236669921316 1.01 -0.186 0.363 4.26 23.351 -45.115
