Time AX AY AZ GX GY GZ
0.012819582989322953 0.943 -0.219 0.514 -2.069 20.504 -43.076
0.02509233300224878 0.938 -0.227 0.519 -1.527 19.42 -43.412
0.031767708002007566 0.955 -0.214 0.523 -1.977 18.954 -43.618
0.04389370798890013 0.956 -0.213 0.525 -2.412 18.763 -43.588
0.05074412499379832 0.964 -0.216 0.517 -1.756 19.252 -43.244
0.06309154100017622 0.969 -0.219 0.513 -2.336 20.443 -43.397
0.07529791598790325 0.95 -0.215 0.518 -2.092 20.45 -43.137
0.08213083299051505 0.95 -0.206 0.528 -2.214 19.015 -42.573
0.09421516599832103 0.954 -0.2 0.527 -3.603 18.153 -42.305
0.10114466599770822 0.957 -0.221 0.534 -3.45 17.458 -42.542
0.11337470800208393 0.978 -0.225 0.506 -2.702 19.107 -42.069
0.12527670800045598 0.96 -0.224 0.516 -2.397 20.977 -42.382
0.13228645799972583 0.939 -0.21 0.532 -2.656 20.153 -42.214
0.14438899999368005 0.937 -0.215 0.522 -3.611 19.969 -42.221
0.15150562499184161 0.94 -0.223 0.521 -3.573 19.962 -42.916
0.16330770798958838 0.935 -0.227 0.51 -2.305 19.282 -42.794
0.17535058299836237 0.947 -0.232 0.504 -1.328 19.893 -42.756
0.18224299998837523 0.941 -0.226 0.509 -0.679 21.008 -43.412
0.19441608298802748 0.932 -0.212 0.518 -1.29 19.885 -43.511
0.2013962079945486 0.943 -0.209 0.527 -2.29 19.0 -43.595
0.21358825000061188 0.942 -0.211 0.522 -3.626 19.336 -43.489
0.21929379100038204 0.952 -0.213 0.531 -3.985 20.053 -43.779
0.2325165410002228 0.956 -0.231 0.514 -3.588 21.954 -43.786
0.24490679099108092 0.955 -0.222 0.529 -2.206 21.893 -43.779
0.2517427080019843 0.942 -0.217 0.528 -0.863 20.031 -43.282
0.2636912079906324 0.934 -0.218 0.536 -0.641 18.099 -43.504
0.2705311659956351 0.945 -0.209 0.534 -0.466 16.885 -43.557
0.2828097909950884 0.975 -0.214 0.51 -0.992 17.924 -43.473
0.2947252909943927 0.979 -0.214 0.503 -1.458 20.611 -43.626
0.3018909579986939 0.971 -0.201 0.515 -2.336 22.229 -43.725
0.313731791000464 0.965 -0.201 0.531 -3.29 22.053 -43.015
0.32088337499590125 0.955 -0.209 0.517 -4.458 22.244 -42.504
0.33271929099282715 0.947 -0.211 0.538 -5.0 21.084 -42.534
0.34488291598972864 0.954 -0.222 0.519 -4.992 20.153 -42.015
0.35182199999690056 0.961 -0.231 0.521 -4.908 20.634 -42.542
0.36404583299008664 0.952 -0.229 0.534 -5.069 20.901 -43.229
0.37098991600214504 0.96 -0.231 0.539 -4.947 18.649 -42.466
0.38320933299837634 0.966 -0.218 0.552 -6.084 17.794 -41.824
0.3953272079961607 0.977 -0.226 0.561 -8.359 17.168 -41.611
0.4023030409880448 0.996 -0.221 0.583 -12.992 17.076 -40.13
0.41398829099489376 1.027 -0.258 0.599 -15.313 20.74 -40.221
0.4209242910001194 1.012 -0.244 0.615 -20.0 21.626 -39.611
0.4327531659946544 0.975 -0.25 0.707 -24.55 14.634 -38.107
0.4449331659998279 1.008 -0.251 0.672 -29.809 15.267 -34.733
0.4518239159951918 1.023 -0.262 0.643 -35.405 15.252 -34.962
0.4637053329934133 1.01 -0.284 0.632 -43.534 13.733 -33.145
0.47075583299738355 1.048 -0.347 0.625 -47.794 13.183 -31.71
0.4825157500017667 1.063 -0.356 0.587 -54.015 14.397 -31.176
0.49487720799515955 1.059 -0.364 0.602 -58.962 15.16 -30.336
0.5018763330008369 1.036 -0.357 0.616 -62.321 8.557 -29.702
0.5139046659896849 1.061 -0.368 0.559 -63.435 3.939 -27.168
0.5206933329900494 1.12 -0.387 0.498 -62.198 3.855 -25.878
0.5328811249928549 1.151 -0.377 0.469 -59.756 8.527 -24.427
0.5447749159939121 1.16 -0.37 0.47 -57.069 12.252 -22.763
0.5518035829882137 1.145 -0.313 0.456 -58.672 11.198 -18.855
0.5635276659886586 1.167 -0.309 0.449 -61.58 11.344 -14.771
0.569289207996917 1.167 -0.327 0.427 -63.809 15.061 -11.824
0.5827583329955814 1.132 -0.347 0.423 -63.595 19.313 -9.26
0.595006415998796 1.095 -0.358 0.407 -62.458 20.496 -6.237
0.6017842909932369 1.051 -0.38 0.398 -60.26 20.427 -4.176
0.6138116660004016 1.005 -0.389 0.374 -57.763 18.794 -2.626
0.6206677500013029 0.977 -0.39 0.341 -56.519 16.992 -0.641
0.6327603749959962 0.964 -0.399 0.304 -56.267 16.908 0.641
0.6449006249895319 0.947 -0.399 0.283 -57.351 19.092 2.198
0.6521878329949686 0.943 -0.406 0.205 -57.023 23.374 1.916
0.6639265830017393 0.945 -0.381 0.194 -58.519 27.198 -2.107
0.6711620829883032 0.905 -0.369 0.227 -56.0 25.847 -5.847
0.6830539160000626 0.905 -0.353 0.267 -49.229 18.466 -7.794
0.6952704579889541 0.918 -0.339 0.238 -40.962 10.511 -7.588
0.7023268749908311 0.935 -0.317 0.229 -36.076 5.237 -7.023
0.7144641659979243 0.906 -0.294 0.19 -34.618 0.015 -5.206
0.7213549159932882 0.922 -0.299 0.114 -36.008 -1.16 -1.878
0.733583458000794 0.929 -0.31 0.055 -36.55 2.725 -1.0
0.7391103749978356 0.886 -0.305 -0.025 -38.168 7.359 -0.519
0.7525611659948481 0.849 -0.338 -0.152 -40.366 14.45 2.092
0.7648727079940727 0.906 -0.397 -0.331 -39.252 26.74 2.42
0.7716672499955166 0.862 -0.463 -0.396 -25.382 36.473 0.725
0.7837717079964932 0.753 -0.458 -0.489 -6.366 43.634 -0.214
0.793562540988205 0.652 -0.458 -0.469 13.58 41.702 -3.786
0.8028034579911036 0.558 -0.418 -0.408 37.763 29.84 -7.656
0.814754915991216 0.471 -0.409 -0.299 69.458 2.038 -12.282
0.821834290996776 0.463 -0.382 -0.284 104.176 -30.328 -17.42
0.8333123329939554 0.567 -0.345 -0.369 135.603 -45.939 -23.221
0.845270416000858 1.041 2.0 2.0 -250.137 124.939 -100.191
0.8519036249927012 -0.602 -2.0 2.0 188.954 -217.328 -3.008
0.8637219579977682 0.705 0.552 -1.436 59.466 -250.137 -56.756
0.8709573749947594 1.927 -1.359 -2.0 -78.435 -2.473 8.176
0.8827617499919143 2.0 -1.003 0.387 50.053 204.794 -93.626
0.894905374996597 -0.23 0.469 1.311 44.13 78.55 -53.321
0.9022107079945272 0.164 0.011 0.242 -0.313 57.458 -2.969
0.9140653329959605 0.485 -0.187 0.301 -43.527 52.053 -35.183
0.9210035409923876 0.431 -0.311 0.412 -58.168 50.817 -30.618
0.9328036660008365 0.792 -0.517 0.438 -48.115 34.115 -18.214
0.9451435829978436 1.062 -0.698 0.286 -33.481 62.908 -20.206
0.9520196660014335 0.886 -0.819 0.519 -16.931 98.305 -33.405
0.9637294579879381 0.471 -0.722 0.829 -6.092 81.008 -40.046
0.9711060830013594 0.376 -0.681 0.979 0.168 36.664 -42.221
0.9830272499966668 0.465 -0.672 0.956 -1.122 -2.282 -51.962
0.9948835409886669 0.558 -0.653 0.884 -9.137 -31.313 -63.183
1.001852957997471 0.659 -0.677 0.764 -16.763 -54.58 -69.794
1.013756749991444 0.776 -0.674 0.591 -20.061 -69.489 -75.321
1.0193566660018405 0.946 -0.632 0.398 -24.481 -69.328 -78.962
1.0322139159979997 1.082 -0.563 0.223 -30.733 -54.634 -82.221
1.0442385829956038 1.206 -0.483 0.049 -43.481 -29.405 -80.893
1.0511748329881812 1.275 -0.484 -0.018 -51.779 -3.962 -76.756
1.0630157080013305 1.269 -0.485 -0.083 -53.183 18.198 -68.427
1.0750610830000369 1.225 -0.493 -0.11 -48.672 30.038 -57.466
1.0819578749942593 1.162 -0.51 -0.145 -40.107 31.863 -46.649
1.0938982910010964 1.106 -0.521 -0.196 -30.244 30.153 -39.244
1.099625124988961 1.057 -0.52 -0.228 -21.168 27.634 -35.695
1.11223670799518 1.001 -0.535 -0.25 -13.695 23.412 -34.397
1.124555207992671 0.961 -0.535 -0.306 -5.244 18.985 -33.725
1.1312231249903562 0.954 -0.554 -0.397 4.26 16.992 -33.832
1.1433237079909304 0.938 -0.58 -0.516 17.527 22.084 -33.443
1.1555159999988973 0.917 -0.549 -0.612 32.733 28.634 -31.725
1.1623376659990754 0.916 -0.546 -0.677 51.046 37.153 -27.321
1.1742075410002144 0.865 -0.527 -0.74 73.427 49.061 -26.687
1.181137708001188 0.74 -0.502 -0.762 93.237 62.626 -27.992
1.1930752909975126 0.607 -0.441 -0.71 108.45 70.038 -31.84
1.20495991599455 0.473 -0.391 -0.615 118.489 71.481 -36.87
1.2120691659947624 0.393 -0.343 -0.524 124.954 71.443 -43.405
1.223820874991361 0.817 0.544 2.0 -209.046 197.313 -65.664
1.235410832989146 -0.824 -2.0 2.0 181.893 -22.847 -59.145
1.2421536659967387 -0.927 0.914 -1.603 58.298 -250.137 -111.42
1.2539647910016356 0.633 -0.879 -2.0 -143.954 -15.962 0.557
1.2612819999922067 2.0 -1.608 2.0 1.863 59.122 -97.992
1.2732494160009082 0.221 0.067 0.777 21.473 -53.656 -97.275
1.285186832988984 0.564 -0.213 -0.134 22.733 7.29 -53.916
1.292203499993775 0.842 -0.153 0.53 13.344 -7.992 -101.573
1.3043833749979967 0.543 0.016 0.515 -4.42 -27.031 -72.244
1.3113292909984011 1.324 -0.289 0.517 -7.038 -31.099 -55.725
1.3233125830010977 1.37 -0.399 0.336 -0.824 1.221 -62.641
1.335546540998621 1.197 -0.495 0.437 16.214 37.55 -66.031
1.3425302079995163 0.976 -0.471 0.532 35.122 45.641 -66.87
1.3544348750001518 0.988 -0.432 0.549 51.977 49.916 -62.794
1.3613710409990745 0.987 -0.369 0.511 60.84 58.206 -64.382
1.3734819999954198 0.871 -0.336 0.496 59.038 55.87 -64.321
1.385507332990528 0.748 -0.215 0.632 38.481 33.076 -62.313
1.3928214999905322 0.894 -0.381 0.677 27.015 25.618 -62.557
1.404539625000325 0.947 -0.396 0.635 21.45 32.733 -73.412
1.4115824999898905 0.872 -0.381 0.629 16.389 31.053 -78.206
1.423659249994671 0.905 -0.412 0.627 16.237 22.878 -78.221
1.430804415998864 0.954 -0.43 0.555 19.313 24.863 -79.504
1.4426494579965947 0.958 -0.381 0.534 17.366 28.519 -81.298
1.455059749991051 0.899 -0.336 0.567 10.313 21.939 -77.473
1.4620564579963684 0.946 -0.36 0.517 6.092 16.237 -72.588
1.4742244160006521 0.926 -0.396 0.476 6.931 20.542 -73.664
1.4809789159917273 1.022 -0.313 0.348 -0.206 29.748 -72.679
1.4931534579955041 0.789 -0.346 0.554 -9.466 16.977 -69.313
1.5049921659956453 0.971 -0.376 0.396 -9.267 13.176 -61.107
1.5118541659903713 1.061 -0.411 0.342 -11.16 26.527 -66.008
1.5241117080004187 0.916 -0.383 0.351 -15.641 31.229 -66.473
1.5308752909913892 0.903 -0.381 0.373 -19.351 24.183 -64.794
1.5429563329962548 0.967 -0.396 0.329 -18.771 22.298 -64.107
1.5547406249970663 0.998 -0.404 0.291 -15.046 24.405 -64.618
1.5616646659909748 0.987 -0.392 0.277 -10.641 24.962 -64.74
1.5738153330021305 0.978 -0.385 0.299 -8.359 23.321 -64.618
1.5808266249950975 0.985 -0.379 0.316 -7.366 20.58 -64.13
1.5929135829937877 0.991 -0.394 0.307 -5.328 19.45 -64.397
1.6049492079910124 0.989 -0.399 0.295 -3.061 18.511 -64.595
1.6119047499960288 1.006 -0.365 0.287 -2.076 18.412 -64.626
1.6240088749909773 1.023 -0.34 0.301 -2.481 20.237 -63.389
1.6309348749928176 1.015 -0.325 0.347 -1.794 18.939 -60.878
1.6430823330010753 1.026 -0.332 0.354 -0.924 14.649 -58.008
1.654918207990704 1.031 -0.333 0.345 -1.221 13.55 -56.641
1.6621238329971675 1.031 -0.346 0.337 -0.885 14.466 -56.443
1.6741763329919195 1.026 -0.356 0.309 0.939 15.71 -56.275
1.681151749988203 1.037 -0.349 0.311 3.084 17.855 -56.458
1.6933569159882609 1.038 -0.34 0.301 3.573 21.496 -56.405
1.7055853749916423 1.024 -0.334 0.312 4.756 23.786 -56.443
1.7126963329938008 1.014 -0.307 0.33 5.733 22.084 -54.382
1.724892040991108 1.021 -0.302 0.326 6.84 20.664 -52.344
1.7318457499932265 1.013 -0.305 0.347 7.427 19.878 -50.733
1.7440533329936443 1.004 -0.313 0.356 8.71 18.496 -49.29
1.7510210409964202 1.01 -0.309 0.36 7.824 18.45 -48.229
1.76303495799948 1.007 -0.314 0.38 6.237 18.885 -47.855
1.7752747499907855 1.01 -0.35 0.386 5.29 18.412 -47.252
1.7823335409921128 1.046 -0.427 0.35 4.672 19.985 -47.046
1.7946185409964528 1.091 -0.454 0.314 4.679 25.229 -48.206
1.8017258329928154 1.098 -0.419 0.356 8.496 28.595 -49.802
1.8135122499952558 1.087 -0.367 0.408 14.298 28.061 -49.496
1.820676999996067 1.074 -0.321 0.452 16.962 24.313 -46.947
1.8326116659882246 1.104 -0.294 0.483 18.16 24.038 -44.443
1.8447697499941569 1.071 -0.252 0.498 16.481 23.649 -41.183
1.8516116249957122 1.059 -0.25 0.5 13.885 24.031 -37.893
1.8638209999917308 1.037 -0.249 0.498 11.206 27.053 -35.725
1.8709039160021348 1.019 -0.246 0.496 7.908 29.924 -34.672
1.8830443329934496 0.963 -0.263 0.506 5.718 28.374 -33.473
1.895250165995094 0.936 -0.28 0.485 4.939 26.16 -32.588
1.9024304159975145 0.931 -0.284 0.474 4.16 24.763 -32.779
1.9142548329982674 0.915 -0.296 0.485 3.336 22.824 -33.962
1.921368249997613 0.909 -0.308 0.474 3.542 21.817 -35.344
1.9334848750004312 0.923 -0.318 0.466 3.603 22.702 -36.496
1.9407050409936346 0.908 -0.323 0.47 4.405 21.84 -37.466
1.9528951249958482 0.887 -0.301 0.474 3.313 18.74 -37.58
1.9650754999893252 0.906 -0.31 0.479 3.031 16.137 -38.137
1.9719320829899516 0.909 -0.302 0.472 1.863 16.046 -39.061
1.9839620829880005 0.91 -0.308 0.464 0.931 17.122 -40.069
1.9911651659931522 0.921 -0.304 0.468 1.023 17.74 -41.0
2.00321595800051 0.921 -0.295 0.471 -0.031 17.885 -41.489
2.0152275000000373 0.93 -0.281 0.475 -1.756 17.29 -41.802
2.0221827079949435 0.93 -0.281 0.46 -2.74 17.145 -41.542
2.034447874990292 0.961 -0.292 0.433 -2.71 19.641 -42.198
2.0415490409941413 0.95 -0.29 0.443 -1.527 21.0 -42.588
2.053458041002159 0.944 -0.287 0.458 -0.275 19.641 -41.779
2.0653872080001747 0.949 -0.299 0.427 0.832 19.168 -41.664
2.0725723749928875 0.937 -0.296 0.422 2.153 19.924 -42.58
2.084845499994117 0.938 -0.285 0.417 2.366 20.664 -43.435
2.0918847909924807 0.942 -0.276 0.427 1.214 20.092 -43.634
2.104038915989804 0.947 -0.281 0.43 0.153 18.916 -43.466
2.1109129159885924 0.961 -0.296 0.411 0.443 20.366 -43.802
2.1231398329982767 0.958 -0.282 0.421 -0.29 21.13 -44.275
2.135151832990232 0.945 -0.288 0.449 -0.191 20.534 -43.725
2.1422738330002176 0.946 -0.299 0.441 0.466 18.107 -43.336
2.1543148329947144 0.956 -0.311 0.404 1.275 17.977 -43.748
2.161504582996713 0.968 -0.284 0.427 1.122 18.87 -44.519
2.173545332989306 0.963 -0.286 0.435 1.076 18.298 -43.893
2.1806519999954617 0.981 -0.291 0.43 1.466 17.634 -43.038
2.1928564159898087 0.98 -0.312 0.427 3.046 18.779 -43.305
2.20494699999108 0.975 -0.305 0.419 4.794 20.29 -43.191
2.2118119999940973 0.964 -0.271 0.445 2.87 20.137 -43.511
2.223934707988519 0.964 -0.274 0.472 1.176 18.26 -42.397
2.2308144999988144 0.965 -0.284 0.466 0.626 16.137 -41.031
2.2431367079989286 0.969 -0.295 0.442 0.718 16.824 -40.733
2.2554414579935838 0.967 -0.303 0.448 0.183 18.74 -41.099
2.262223540994455 0.956 -0.299 0.453 -0.519 20.565 -41.038
2.2744364579994 0.953 -0.305 0.474 -0.237 20.092 -40.985
2.2817249999934575 0.945 -0.316 0.469 0.847 19.603 -40.534
2.2944558749877615 0.947 -0.306 0.459 1.298 19.779 -40.756
2.3006779159914004 0.936 -0.307 0.473 1.336 19.153 -41.496
2.3126992499892367 0.945 -0.313 0.476 1.885 19.176 -41.466
2.325014290996478 0.935 -0.303 0.483 2.359 18.351 -41.298
2.33216354099568 0.926 -0.291 0.492 2.046 17.817 -41.779
2.3442143329884857 0.932 -0.272 0.504 0.809 16.702 -41.366
2.350859665995813 0.947 -0.26 0.478 -1.504 17.58 -41.282
2.3632675830012886 0.938 -0.272 0.469 -3.221 19.176 -41.962
2.37550383299822 0.927 -0.279 0.45 -3.786 20.191 -42.031
2.382103707990609 0.938 -0.28 0.428 -3.71 22.29 -43.336
2.3943271659954917 0.92 -0.282 0.432 -2.687 23.611 -44.55
2.401108124991879 0.91 -0.285 0.424 -0.26 22.588 -45.29
2.4133733329945244 0.916 -0.288 0.418 1.496 21.626 -46.183
2.420404790987959 0.918 -0.268 0.431 2.664 19.847 -46.359
2.432698624994373 0.935 -0.275 0.424 2.534 19.397 -46.618
2.444922458002111 0.94 -0.265 0.433 2.29 18.229 -46.954
2.451835999992909 0.964 -0.274 0.417 1.939 19.275 -46.092
2.46406308299629 0.976 -0.28 0.422 1.237 22.45 -46.855
2.4710707499907585 0.97 -0.301 0.437 1.664 24.725 -46.901
2.483340874998248 0.966 -0.294 0.438 2.71 23.947 -46.557
2.495586874996661 0.965 -0.291 0.436 2.412 23.985 -46.565
2.502804540999932 0.959 -0.282 0.439 2.992 23.748 -46.405
2.5148733329988318 0.968 -0.301 0.433 4.427 23.573 -46.168
2.5215664159914013 0.971 -0.307 0.439 6.618 24.328 -46.45
2.5336112910008524 0.964 -0.29 0.455 7.489 23.466 -46.443
2.540723332989728 0.96 -0.278 0.496 7.099 21.634 -45.87
