Time AX AY AZ GX GY GZ
0.014076999999815598 0.935 -0.373 0.42 -3.718 20.115 -44.023
0.026251666000462137 0.93 -0.365 0.419 -4.588 19.885 -43.74
0.038167915990925394 0.931 -0.372 0.407 -5.649 20.817 -43.672
0.04529033300059382 0.925 -0.374 0.423 -6.122 21.115 -44.16
0.05736891599372029 0.911 -0.363 0.425 -6.069 18.901 -43.87
0.06463724999048281 0.93 -0.369 0.422 -6.847 18.176 -44.229
0.07621970800391864 0.929 -0.373 0.423 -6.435 17.298 -44.832
0.08352958300383762 0.949 -0.374 0.413 -5.687 16.618 -44.786
0.0953483749908628 0.963 -0.376 0.416 -4.427 18.588 -45.053
0.10748658300144598 0.955 -0.366 0.419 -4.313 20.511 -45.313
0.11445679099415429 0.944 -0.361 0.445 -5.038 20.55 -45.313
0.1265194579900708 0.944 -0.349 0.453 -6.809 21.466 -44.573
0.1334910829900764 0.928 -0.335 0.457 -10.061 21.427 -44.618
0.1454897079966031 0.912 -0.35 0.475 -13.023 21.252 -44.282
0.1574935410026228 0.932 -0.371 0.46 -14.107 21.985 -44.573
0.1644085829902906 0.929 -0.378 0.46 -14.13 23.107 -45.481
0.17631612499826588 0.91 -0.377 0.47 -14.107 21.847 -45.496
0.18826487500336953 0.91 -0.383 0.473 -13.84 18.702 -45.603
0.19522016600240022 0.917 -0.374 0.467 -14.611 17.076 -45.824
0.20733683300204575 0.943 -0.389 0.467 -15.58 18.336 -45.985
0.21425516599265393 0.95 -0.403 0.477 -16.29 20.817 -46.275
0.2261215829930734 0.941 -0.398 0.488 -18.191 22.435 -46.58
0.23795404100383166 0.929 -0.394 0.51 -21.954 22.16 -46.298
0.24486487499962095 0.912 -0.403 0.489 -25.481 20.626 -46.71
0.25700874999165535 0.916 -0.408 0.486 -28.084 18.298 -46.901
0.26412608299870044 0.921 -0.409 0.438 -30.695 15.511 -46.74
0.2759084999997867 0.951 -0.423 0.407 -32.053 13.893 -46.206
0.28764379100175574 0.956 -0.431 0.359 -34.198 15.427 -45.763
0.29465191600320395 0.977 -0.451 0.349 -34.458 16.466 -45.84
0.3068320829916047 0.962 -0.458 0.32 -36.481 15.015 -44.664
0.3138058749900665 0.988 -0.472 0.296 -39.992 13.832 -44.908
0.3255629159975797 1.028 -0.493 0.254 -43.855 15.26 -44.756
0.3375017499929527 1.055 -0.501 0.232 -46.733 15.008 -44.198
0.3444231659959769 1.079 -0.48 0.207 -49.939 13.817 -41.168
0.3565775409952039 1.123 -0.495 0.155 -51.221 15.359 -37.824
0.3634425409982214 1.1 -0.491 0.101 -55.435 9.656 -36.176
0.3753581249911804 1.135 -0.514 0.078 -58.809 17.55 -30.885
0.38757629100291524 1.138 -0.543 0.026 -53.664 21.931 -29.695
0.3942940830020234 1.075 -0.542 -0.02 -47.725 21.771 -25.649
0.4062067909981124 1.053 -0.536 -0.039 -41.344 17.008 -21.229
0.41794149999623187 1.021 -0.525 -0.103 -36.122 14.473 -18.511
0.42484962499293033 0.997 -0.518 -0.179 -31.962 13.527 -16.893
0.43684570799814537 0.967 -0.472 -0.237 -31.084 14.534 -16.939
0.4437203330016928 0.951 -0.438 -0.292 -33.237 14.191 -17.679
0.45562912499008235 0.958 -0.443 -0.366 -28.137 14.031 -19.634
0.46742895799980033 0.953 -0.424 -0.442 -14.687 11.489 -21.87
0.47435770799347665 0.965 -0.357 -0.579 2.298 7.649 -20.802
0.48651908300234936 0.977 -0.287 -0.73 14.947 6.916 -15.374
0.4933388749923324 1.041 -0.273 -0.873 24.908 23.298 -10.084
0.5054482499981532 0.987 -0.306 -0.9 36.908 54.153 -12.824
0.5177022080024472 0.909 -0.344 -0.799 56.542 91.924 -18.748
0.5246667909959797 -0.171 0.642 -2.0 14.817 165.344 34.55
0.5366873329912778 1.722 -0.036 0.26 3.863 231.618 13.992
0.5434517079993384 0.78 -0.505 1.306 66.145 233.962 4.947
0.5553216249973048 -0.494 -2.0 2.0 250.13 152.031 -109.015
0.5670360410003923 -2.0 0.599 0.41 217.244 -250.137 -88.565
0.5737062909902306 -0.169 1.118 -2.0 -101.344 -250.137 154.947
0.5856327079964103 2.0 -2.0 1.836 -32.099 -115.511 23.824
0.5977482909947867 0.59 0.16 0.624 3.473 -86.977 -78.053
0.6047342499950901 0.089 0.148 -0.463 -28.947 -19.55 23.725
0.616819332994055 0.766 -0.312 -0.103 -43.908 6.756 24.13
0.6237347909918753 0.883 -0.429 -0.028 -31.244 40.137 -8.374
0.6359505830041599 0.477 -0.353 -0.061 -21.771 78.992 -14.969
0.6475282909959788 0.691 -0.514 0.487 -12.87 83.252 -22.58
0.6546641659952002 0.665 -0.587 0.625 0.389 68.947 -33.458
0.6667312909994507 0.68 -0.58 0.711 8.282 57.947 -43.397
0.6738799579907209 0.578 -0.494 0.741 4.305 38.031 -54.076
0.686078415994416 0.605 -0.519 0.868 1.053 9.031 -61.954
0.6979743330011843 0.655 -0.489 0.816 -6.45 -16.336 -60.397
0.7049002499989001 0.836 -0.532 0.792 -13.191 -35.092 -61.985
0.7169115409924416 0.893 -0.524 0.689 -18.794 -49.595 -64.443
0.7234193749900442 0.981 -0.513 0.573 -25.252 -54.885 -65.885
0.7353325000003679 1.08 -0.5 0.446 -32.0 -50.863 -69.031
0.7473277079989202 1.178 -0.475 0.302 -39.107 -37.344 -70.733
0.7543546660017455 1.263 -0.461 0.167 -47.115 -14.298 -69.969
0.7662018330011051 1.306 -0.451 0.081 -56.336 13.443 -66.168
0.778536832993268 1.259 -0.48 0.068 -61.351 35.718 -59.969
0.7851085000002058 1.142 -0.518 0.066 -61.382 46.206 -51.122
0.7969132080033887 1.037 -0.54 0.047 -56.809 45.023 -40.916
0.8038894999917829 0.993 -0.557 -0.006 -50.656 38.656 -33.748
0.8159547499963082 0.96 -0.585 -0.068 -42.389 30.87 -31.13
0.8277300409972668 0.922 -0.586 -0.136 -34.389 23.603 -31.183
0.834206790997996 0.901 -0.589 -0.23 -28.267 16.74 -33.031
0.8463169159949757 0.9 -0.586 -0.316 -21.84 12.649 -35.412
0.8522823749954114 0.903 -0.58 -0.4 -15.679 8.74 -38.092
0.8653824159991927 0.914 -0.586 -0.512 -5.702 7.962 -39.214
0.8776300409954274 0.944 -0.559 -0.655 7.626 13.008 -41.107
0.8843409580003936 0.942 -0.525 -0.821 21.802 21.534 -41.046
0.8964767909928923 0.959 -0.523 -0.886 39.45 33.29 -40.641
0.9081859159923624 0.932 -0.51 -0.927 63.061 47.313 -39.87
0.915090374997817 0.875 -0.498 -0.919 89.374 59.55 -40.183
0.9269601659907494 0.763 -0.409 -0.833 112.137 60.931 -39.405
0.9339591250027297 0.703 -0.341 -0.662 132.427 55.038 -37.786
0.9458284159918549 0.661 -0.285 -0.502 153.031 45.672 -37.756
0.9577147079980932 -0.859 2.0 2.0 -250.137 -38.076 -45.214
0.9646279159933329 1.46 -2.0 2.0 241.649 -87.351 9.42
0.9765344159968663 0.573 1.269 -1.368 47.168 -209.771 -64.672
0.98813075000362 1.497 -1.0 -2.0 -157.275 108.969 -23.176
0.9952561249956489 1.377 -0.722 0.798 -46.389 149.336 -82.008
1.007254500000272 -0.585 -0.016 0.717 -14.092 24.084 -57.504
1.0153049579967046 0.28 -0.258 -0.01 -22.519 2.641 -10.084
1.026142125003389 0.765 -0.473 0.405 -3.748 -9.153 -40.878
1.0381517499918118 0.517 -0.136 0.369 2.527 -29.679 -25.725
1.0451935000019148 0.97 -0.351 0.282 -5.924 -11.786 -13.015
1.0570334579970222 1.064 -0.595 0.359 -2.626 38.405 -34.74
1.0638457079912769 0.711 -0.579 0.55 9.519 65.817 -50.58
1.0758070000010775 0.654 -0.554 0.538 20.947 68.092 -59.153
1.088201457998366 0.775 -0.514 0.569 32.473 69.244 -66.481
1.0950952080020215 0.795 -0.448 0.51 36.115 79.023 -73.015
1.1072737909998978 0.678 -0.337 0.62 25.901 71.611 -73.542
1.1145692499994766 0.599 -0.313 0.642 9.275 46.504 -74.122
1.1266507910040673 0.676 -0.436 0.771 1.336 20.725 -68.84
1.1338853329943959 0.781 -0.459 0.698 2.122 6.122 -71.756
1.1459700830018846 0.844 -0.491 0.68 5.221 6.115 -77.824
1.1580072499928065 0.815 -0.47 0.623 9.756 1.031 -83.405
1.1651261660008458 0.838 -0.438 0.554 11.832 -8.282 -84.458
1.176978749994305 0.921 -0.382 0.401 7.885 -15.84 -85.519
1.1841243329981808 1.069 -0.384 0.254 -1.069 -8.863 -85.695
1.1963349580037175 1.145 -0.42 0.258 -3.695 4.214 -88.153
1.2022142079949845 1.113 -0.388 0.32 -3.031 9.969 -86.29
1.21531929099001 1.09 -0.364 0.344 -3.763 10.382 -79.618
1.2276002080034232 1.114 -0.373 0.345 -7.168 14.611 -74.878
1.234537458003615 1.094 -0.375 0.303 -11.122 19.733 -69.481
1.2462672910041874 1.104 -0.365 0.257 -17.992 26.122 -65.534
1.2581435409956612 1.088 -0.397 0.215 -24.252 33.771 -62.42
1.2651900409982773 1.06 -0.411 0.24 -24.504 36.504 -61.267
1.277379999999539 1.027 -0.427 0.246 -21.351 33.511 -59.275
1.2841137079958571 1.035 -0.465 0.221 -16.305 29.718 -58.412
1.2959055829996942 1.016 -0.471 0.218 -12.366 27.458 -58.153
1.3081698329915525 0.997 -0.472 0.22 -9.374 24.145 -58.794
1.3151514579949435 0.989 -0.428 0.229 -8.198 19.176 -58.58
1.3273312079982134 1.004 -0.412 0.218 -8.656 14.824 -57.634
1.3340018750022864 1.024 -0.407 0.218 -8.183 13.351 -56.618
1.3464787499979138 1.038 -0.386 0.211 -8.74 14.244 -55.672
1.3582721249986207 1.036 -0.353 0.227 -10.313 13.855 -53.298
1.3650807079975493 1.048 -0.389 0.236 -9.153 15.053 -51.015
1.37735741600045 1.025 -0.411 0.222 -6.366 15.321 -48.473
1.3842408749915194 1.031 -0.4 0.209 -4.405 16.969 -47.382
1.3963059999950929 1.01 -0.393 0.211 -4.939 19.794 -46.626
1.4020984579983633 0.998 -0.406 0.226 -3.71 22.534 -46.649
1.4153338750038529 0.976 -0.419 0.238 0.534 22.237 -46.412
1.427439958002651 0.966 -0.374 0.256 -1.008 19.87 -45.649
1.434506791003514 0.967 -0.384 0.27 -3.191 19.076 -45.206
1.446671832993161 0.964 -0.41 0.284 -2.16 16.221 -45.183
1.4537559159944067 0.971 -0.422 0.262 0.45 14.427 -44.527
1.4658283750031842 0.974 -0.414 0.258 2.443 14.115 -44.542
1.4780051659909077 0.981 -0.441 0.277 4.519 14.779 -44.359
1.484890624997206 1.01 -0.469 0.272 6.359 15.832 -44.092
1.4969907499908004 1.029 -0.491 0.229 6.916 20.336 -45.107
1.5041336659924127 1.034 -0.458 0.229 6.573 25.0 -46.534
1.5163678749959217 1.021 -0.442 0.295 8.366 27.282 -46.947
1.5221137079934124 0.993 -0.4 0.344 11.267 22.702 -45.985
1.5353477079916047 1.003 -0.352 0.356 11.809 16.015 -42.664
1.5475461659952998 1.039 -0.35 0.352 11.595 15.366 -40.557
1.5544347499962896 1.036 -0.349 0.328 11.389 17.427 -38.924
1.5667983329913113 1.038 -0.353 0.342 11.221 20.71 -36.695
1.5736687909957254 1.017 -0.351 0.331 9.16 24.679 -35.603
1.5857605829951353 0.984 -0.351 0.358 6.053 27.122 -34.511
1.5977574159915093 0.969 -0.361 0.361 3.885 28.397 -33.313
1.6049406249949243 0.94 -0.375 0.366 2.389 28.176 -33.298
1.6171201249962905 0.917 -0.368 0.385 1.115 25.992 -33.0
1.6242495409969706 0.919 -0.379 0.394 1.382 21.664 -32.389
1.636393875000067 0.925 -0.384 0.362 1.794 19.351 -32.214
1.642268374998821 0.925 -0.395 0.347 1.74 19.901 -33.328
1.6553865409950959 0.92 -0.382 0.349 1.008 20.649 -33.611
1.6676201249938458 0.925 -0.396 0.351 0.939 20.519 -34.076
1.6747024159994908 0.934 -0.403 0.35 1.412 21.695 -34.748
1.686817665991839 0.901 -0.386 0.336 1.519 22.534 -35.634
1.6940204159909626 0.874 -0.38 0.369 0.267 21.42 -35.992
1.7061798329959856 0.876 -0.384 0.374 0.321 19.832 -36.718
1.7182428329979302 0.872 -0.39 0.359 0.137 20.008 -37.824
1.7251837499934481 0.864 -0.385 0.354 -0.046 21.053 -39.282
1.7372038750036154 0.883 -0.38 0.361 0.214 20.656 -40.985
1.7444186659995466 0.889 -0.382 0.362 0.672 19.794 -42.344
1.7565601249953033 0.89 -0.384 0.352 1.412 19.87 -43.366
1.7634379579976667 0.902 -0.367 0.364 0.527 18.901 -44.206
1.7757399160036584 0.932 -0.375 0.355 0.344 18.557 -44.351
1.7878794999996899 0.93 -0.386 0.359 1.137 18.008 -44.443
1.7948756249970756 0.959 -0.39 0.36 2.008 18.702 -44.603
1.8071038749912987 0.952 -0.378 0.358 2.031 19.962 -45.397
1.814286875000107 0.96 -0.381 0.375 1.74 21.092 -44.74
1.8263504999922588 0.962 -0.381 0.383 0.916 22.038 -44.71
1.838211374997627 0.952 -0.369 0.382 -0.076 22.664 -44.702
1.8453350829950068 0.964 -0.377 0.385 -0.336 22.42 -44.076
1.8575248749984894 0.966 -0.388 0.39 0.458 21.878 -43.122
1.8643615000037244 0.969 -0.4 0.366 1.771 22.519 -43.145
1.8765051249938551 0.951 -0.389 0.375 2.107 22.992 -43.656
1.8836617079941789 0.945 -0.377 0.389 1.198 21.053 -43.435
1.8958078330033459 0.953 -0.385 0.386 0.595 19.267 -42.794
1.907958249998046 0.956 -0.396 0.365 0.366 18.779 -42.374
1.914912041000207 0.947 -0.384 0.375 -0.458 18.634 -42.534
1.926987625003676 0.952 -0.372 0.377 -1.756 18.809 -42.618
1.934061207997729 0.964 -0.376 0.355 -2.733 19.16 -41.687
1.9462861659994815 0.966 -0.38 0.361 -3.069 19.802 -40.695
1.958358457995928 0.952 -0.387 0.356 -2.672 19.313 -40.069
1.9652471659937873 0.963 -0.392 0.335 -1.947 20.947 -39.87
1.9772453329933342 0.956 -0.412 0.356 -0.313 22.435 -40.527
1.9841244159906637 0.93 -0.396 0.36 0.679 21.824 -40.443
1.996282833002624 0.92 -0.386 0.369 0.397 20.473 -40.397
2.003417582993279 0.921 -0.381 0.39 -1.092 19.168 -40.443
2.0152298329921905 0.932 -0.396 0.376 -1.153 19.267 -40.939
2.027524249991984 0.927 -0.391 0.363 -1.878 19.588 -41.649
2.0344498329941416 0.917 -0.374 0.389 -3.015 18.489 -41.267
2.046566624994739 0.938 -0.383 0.39 -3.42 18.916 -41.092
2.053148582999711 0.928 -0.407 0.383 -3.145 19.763 -40.931
2.065668249997543 0.927 -0.417 0.363 -1.389 21.069 -41.771
2.0777364160021534 0.914 -0.385 0.375 -0.916 21.802 -43.076
2.0846400409936905 0.918 -0.377 0.391 -2.504 21.084 -43.092
2.096830249996856 0.907 -0.373 0.408 -3.695 17.435 -42.725
2.103689249997842 0.919 -0.389 0.37 -3.351 15.336 -41.962
2.1159055000025546 0.95 -0.411 0.343 -2.015 18.038 -43.023
2.127743624994764 0.933 -0.385 0.351 -1.824 20.008 -43.733
2.1349472500005504 0.926 -0.386 0.376 -2.008 18.863 -43.053
2.14681995799765 0.943 -0.388 0.356 -1.733 18.389 -43.084
2.153946749996976 0.95 -0.401 0.344 -0.542 19.229 -43.313
2.1660497080010828 0.939 -0.395 0.346 0.893 20.053 -44.374
2.1781780000019353 0.944 -0.392 0.355 1.389 20.687 -44.534
2.1851976250036387 0.935 -0.392 0.358 1.939 20.275 -44.092
2.197237165994011 0.943 -0.401 0.34 2.771 20.389 -44.107
2.20447729100124 0.939 -0.39 0.339 3.893 21.405 -44.321
2.2166710829915246 0.912 -0.361 0.373 1.45 19.13 -44.771
2.2235915409983136 0.931 -0.363 0.388 -0.687 18.336 -44.076
2.2356682079989696 0.943 -0.374 0.377 -2.153 17.87 -43.481
2.2476962079963414 0.952 -0.398 0.364 -1.794 19.809 -43.435
2.25461966599687 0.953 -0.403 0.361 -0.359 21.626 -44.031
2.2668059580028057 0.946 -0.4 0.38 0.458 22.534 -43.939
2.2739810829953058 0.938 -0.404 0.383 0.962 22.679 -43.985
2.285983875000966 0.92 -0.405 0.394 2.153 21.168 -43.84
2.2982890409912216 0.916 -0.391 0.389 1.595 18.557 -43.504
2.305249165990972 0.937 -0.389 0.39 0.847 16.427 -43.267
2.3174240829976043 0.941 -0.392 0.381 0.519 16.046 -43.153
2.3245426249923185 0.938 -0.381 0.382 -0.359 16.473 -43.588
2.3364406659966335 0.948 -0.38 0.382 -1.695 16.969 -43.557
2.3435778749990277 0.947 -0.374 0.379 -3.359 17.74 -43.527
2.355397958002868 0.952 -0.383 0.37 -3.992 18.534 -43.557
2.3674419579911046 0.961 -0.398 0.341 -3.847 19.496 -43.634
2.3744840409926837 0.964 -0.402 0.36 -2.466 19.992 -42.779
2.3868232910026563 0.96 -0.398 0.342 -0.763 20.328 -42.252
2.39369629099383 0.952 -0.386 0.364 -0.298 19.74 -42.145
2.405631582994829 0.948 -0.375 0.375 -1.443 19.008 -41.702
2.4177531250024913 0.952 -0.382 0.374 -2.435 19.603 -41.725
2.424636041003396 0.961 -0.386 0.369 -2.458 20.634 -41.924
2.436836458000471 0.95 -0.401 0.364 -1.466 21.107 -42.038
2.4437107909907354 0.952 -0.397 0.36 -1.107 21.977 -42.198
2.4557932909956435 0.93 -0.391 0.369 -0.603 21.153 -42.397
2.4677853750035865 0.921 -0.386 0.38 -0.748 18.756 -42.267
2.4750250409997534 0.939 -0.385 0.368 -0.84 17.092 -41.664
2.4868126249930356 0.952 -0.395 0.352 -1.366 20.214 -41.832
2.493836374997045 0.947 -0.403 0.349 -0.298 21.626 -42.389
2.5061050829972373 0.945 -0.401 0.35 0.557 22.092 -42.603
2.518204833002528 0.932 -0.393 0.361 0.924 21.748 -41.924
2.524869499990018 0.926 -0.385 0.375 -0.313 21.748 -41.832
2.5371374579990515 0.909 -0.38 0.384 -2.023 21.374 -42.809
