Time AX AY AZ GX GY GZ
0.01292283300000463 -0.064 -0.089 0.988 0.466 0.176 -0.351
0.025101750000004586 -0.079 -0.088 0.996 -0.008 -0.992 -0.649
0.03192591699999525 -0.072 -0.089 0.993 -1.58 -1.397 -1.969
0.04436008300001504 -0.057 -0.094 0.972 -1.702 -1.809 -2.092
0.05128433300001234 -0.044 -0.092 0.968 -1.366 -0.16 -1.595
0.06360349999999926 -0.053 -0.083 0.967 -1.519 1.053 -1.359
0.07067549999999301 -0.072 -0.076 0.976 -2.183 1.466 -1.382
0.08279287499999555 -0.069 -0.074 0.97 -2.817 1.038 -1.496
0.09531220799999574 -0.061 -0.087 0.98 -3.588 1.847 -1.634
0.10234391700001311 -0.067 -0.098 0.989 -3.168 2.344 -1.198
0.1146253750000028 -0.071 -0.082 0.978 -3.069 3.191 -0.511
0.12167991699999448 -0.081 -0.094 0.99 -3.473 1.389 0.313
0.1340197499999931 -0.055 -0.135 0.995 -2.145 1.824 -0.542
0.14112245800001233 -0.043 -0.123 0.989 -0.435 2.527 -1.191
0.15348529199999916 -0.06 -0.115 1.0 -0.168 4.382 0.664
0.16074512500000537 -0.081 -0.076 1.008 -0.267 3.527 -0.847
0.17311349999999948 -0.072 -0.077 1.003 -1.42 1.618 -0.786
0.1851439579999976 -0.077 -0.112 1.002 -1.618 1.618 0.389
0.19251462500000116 -0.092 -0.123 1.009 -0.466 -0.863 -0.855
0.20447100000001228 -0.044 -0.111 0.983 0.435 -0.908 -0.985
0.21188345800001684 -0.068 -0.122 0.973 0.252 0.397 -1.176
0.22389966700001196 -0.061 -0.106 0.987 0.191 1.634 -1.756
0.2314391670000191 -0.059 -0.124 0.988 1.802 1.282 -1.779
0.2434778749999964 -0.046 -0.144 0.982 4.153 2.443 -1.336
0.25110179200001426 -0.022 -0.131 0.952 5.595 4.618 -2.282
0.2630114170000013 -0.068 -0.103 0.973 6.16 4.786 -1.985
0.2753144579999969 -0.054 -0.052 0.971 3.962 5.206 0.176
0.28284133299999326 -0.059 -0.064 0.984 3.191 4.328 -2.015
0.2948080000000175 -0.105 -0.06 1.0 1.595 3.183 -1.809
0.30212037500001543 -0.113 -0.053 0.997 0.13 -1.328 -1.511
0.3144655000000114 -0.069 -0.15 0.993 0.992 -5.359 -2.061
0.32182183300000133 0.009 -0.235 0.972 7.107 -1.321 -3.725
0.3340166670000144 0.03 -0.214 0.974 14.122 6.038 -1.382
0.34129262499999413 0.019 -0.2 0.958 18.763 9.802 -5.84
0.3532909170000096 -0.043 -0.112 0.982 19.374 12.359 -9.534
0.36529208300001415 -0.052 -0.047 0.98 17.023 9.916 -11.061
0.372602999999998 -0.119 -0.043 1.004 12.802 6.55 -10.87
0.3846140420000097 -0.098 -0.032 0.999 8.916 2.115 -14.374
0.39190937500001155 -0.106 0.018 0.968 4.389 3.107 -13.023
0.40390154199999984 -0.077 -0.014 0.963 1.786 -1.275 -10.893
0.41119900000001053 -0.076 -0.051 0.972 1.0 2.588 -10.13
0.4235199580000142 -0.078 -0.058 0.955 -0.015 2.13 -9.42
0.43081300000000056 0.003 -0.121 0.939 3.183 7.794 -8.13
0.44313350000001606 -0.036 -0.187 0.968 8.275 13.427 -8.809
0.4550833330000046 -0.051 -0.108 0.981 11.771 18.366 -8.863
0.462171957999999 -0.141 -0.051 1.043 11.252 15.573 -7.908
0.4745351669999991 -0.171 0.006 1.027 9.603 10.672 -10.977
0.4814710420000097 -0.221 0.069 1.033 5.733 1.252 -10.389
0.4942455420000158 -0.147 0.009 1.005 1.718 -5.748 -8.809
0.5010305830000163 -0.061 -0.046 0.969 0.427 -3.962 -8.099
0.5133939579999947 -0.023 -0.113 0.982 5.458 2.519 -2.863
0.5209144579999929 -0.016 -0.101 0.97 7.427 5.023 -4.305
0.5329368330000079 -0.008 -0.072 0.931 4.504 13.153 -1.672
0.5449302920000036 -0.104 -0.061 1.009 5.069 10.458 -4.038
0.552440875000002 -0.134 -0.082 1.014 4.191 4.71 -2.924
0.5644784170000037 -0.12 -0.04 0.994 4.008 3.534 -1.443
0.5721673749999923 -0.151 -0.061 1.011 3.176 -1.756 0.13
0.5840740000000153 -0.115 -0.063 0.986 3.382 -3.656 -0.153
0.591353708000014 -0.115 -0.048 0.961 2.458 -5.527 -2.382
0.6033283330000074 -0.042 -0.13 0.957 3.237 -6.908 -5.237
0.6109013749999974 0.039 -0.103 0.939 8.16 8.29 -1.008
0.6232586250000054 -0.076 -0.051 0.98 9.809 12.061 1.634
0.6351987920000113 -0.067 -0.022 0.983 9.542 13.313 -0.023
0.6425042920000124 -0.115 -0.017 1.01 7.71 12.794 -3.107
0.6547699170000101 -0.083 -0.032 1.008 7.366 9.931 -4.267
0.6620193330000177 -0.083 -0.044 1.009 6.939 10.802 -0.099
0.6739889579999954 -0.075 -0.05 1.031 7.015 9.427 -2.725
0.6816151250000075 -0.095 -0.058 1.008 6.656 10.481 8.893
0.6936112920000141 -0.155 -0.083 1.033 9.58 11.008 -0.641
0.7009065420000127 -0.142 -0.014 1.007 8.0 8.55 -6.641
0.7131430830000056 -0.144 0.009 0.978 4.786 8.099 -4.725
0.7254572500000052 -0.118 -0.03 0.987 6.427 7.176 -1.107
0.7328849579999996 -0.112 -0.043 0.981 7.695 8.466 1.725
0.7451750419999996 -0.137 -0.012 0.991 7.206 8.863 3.985
0.7526227500000005 -0.165 0.031 0.992 4.802 5.641 3.267
0.7646518749999984 -0.151 -0.021 0.949 2.588 3.71 -5.13
0.7721637920000148 -0.133 0.023 0.945 -0.656 2.992 -2.084
0.7842780000000005 -0.114 0.028 0.934 -2.527 2.038 -6.412
0.7915734169999951 -0.106 -0.03 0.939 -3.313 4.656 -4.809
0.8038088750000156 -0.103 -0.006 0.954 -2.053 4.168 -2.214
0.8111527920000015 -0.106 0.0 0.963 -1.603 5.427 -1.588
0.8234063330000083 -0.132 0.014 0.97 -3.42 3.672 -0.496
0.8354140830000176 -0.11 -0.025 0.967 -5.664 0.603 -0.443
0.8426926669999943 -0.077 -0.067 0.97 -4.107 2.603 0.092
0.8548941669999977 -0.093 -0.061 0.983 -2.595 5.374 2.061
0.8622233330000029 -0.113 -0.059 1.013 -0.847 5.466 2.321
0.8744797920000167 -0.093 -0.029 0.966 -1.504 5.794 3.702
0.881789958000013 -0.145 -0.023 0.991 -1.405 6.931 5.832
0.8940875419999941 -0.156 -0.016 1.02 -1.695 5.16 3.42
0.901312125000004 -0.188 -0.012 1.021 -4.0 0.947 4.122
0.9135458750000112 -0.171 -0.008 0.997 -5.42 -5.405 2.58
0.9209144170000059 -0.117 -0.022 0.986 -5.511 -3.55 2.489
0.9329335829999934 -0.09 -0.069 0.971 -3.74 -2.168 1.267
0.945243583000007 -0.083 -0.072 0.993 -1.786 1.786 3.031
0.9524855829999979 -0.093 -0.065 0.988 0.168 1.969 0.992
0.9647531250000156 -0.094 -0.028 0.982 0.137 3.74 1.176
0.9723818330000142 -0.121 -0.034 1.0 -0.282 2.374 1.015
0.9843129170000111 -0.114 -0.03 0.994 -0.313 0.802 0.267
0.9917498330000001 -0.106 -0.055 0.986 -0.893 0.985 1.435
1.0036580830000048 -0.113 -0.071 0.974 -0.069 0.779 1.557
1.010926583000014 -0.118 -0.058 0.964 0.405 -0.183 1.634
1.0230818750000026 -0.121 -0.072 0.956 0.0 -1.504 0.855
1.0287621669999965 -0.119 -0.044 0.947 -0.908 -0.763 0.168
1.042513791999994 -0.115 -0.031 0.951 -1.779 0.282 0.588
1.0550723750000088 -0.139 -0.006 0.956 -3.473 1.198 1.481
1.0619423330000188 -0.128 -0.011 0.958 -4.458 1.672 -0.107
1.074300749999992 -0.132 -0.014 0.966 -5.282 1.901 0.435
1.0815754580000032 -0.124 -0.029 0.97 -5.214 1.176 0.023
1.0938107080000066 -0.128 -0.044 0.987 -5.611 0.351 1.023
1.100842125000014 -0.131 -0.031 1.008 -5.679 -1.649 1.763
1.1133687500000065 -0.103 -0.049 0.984 -5.397 -2.229 0.0
1.1189981670000009 -0.107 -0.078 0.991 -5.183 -1.916 -1.42
1.1326590420000002 -0.073 -0.066 0.985 -4.786 0.504 -4.26
1.144826542000004 -0.08 -0.032 0.986 -2.733 0.298 -2.733
1.1519335000000126 -0.09 -0.04 0.983 -2.481 0.496 -3.122
1.1642344170000172 -0.109 -0.013 0.987 -4.618 0.725 -3.153
1.1712997079999923 -0.114 -0.025 1.0 -3.473 -0.16 -0.733
1.1836181250000095 -0.117 -0.038 1.012 -1.557 -1.733 2.252
1.1908952919999933 -0.123 -0.034 0.989 -1.076 -3.122 2.115
1.2031607080000128 -0.115 -0.049 1.005 -0.878 -4.145 3.069
1.2151790830000095 -0.106 -0.045 1.002 -0.901 -3.076 2.573
1.2225597919999984 -0.099 -0.046 0.991 -1.16 -2.534 2.321
1.2345101250000141 -0.108 -0.058 0.988 -0.458 -1.26 2.427
1.2420705000000112 -0.123 -0.071 0.991 0.634 -1.099 4.466
1.254163707999993 -0.122 -0.087 0.989 3.0 -0.733 4.901
1.2616279579999912 -0.167 -0.05 1.002 3.359 -0.206 6.45
1.273633832999991 -0.19 -0.029 1.008 3.214 -3.802 5.55
1.2813886250000053 -0.169 -0.014 0.977 1.183 -6.313 3.634
1.2928477920000034 -0.146 -0.033 0.96 -0.473 -7.74 4.305
1.3051232920000189 -0.105 -0.042 0.948 -1.183 -5.42 4.725
1.3121758329999977 -0.116 -0.07 0.961 -0.649 -4.802 4.473
1.3246240420000106 -0.106 -0.032 0.944 -1.748 -2.931 2.771
1.332030292000013 -0.126 -0.025 0.967 -3.053 -3.237 3.908
1.3439502920000166 -0.107 -0.0 0.968 -4.344 -3.466 3.076
1.3512487499999963 -0.098 -0.015 0.979 -6.489 -3.069 2.092
1.3632482920000086 -0.085 -0.01 0.98 -7.695 -2.389 2.389
1.3707726250000007 -0.072 -0.046 0.993 -7.038 0.038 3.916
1.3828279580000071 -0.085 -0.06 1.01 -5.496 2.038 4.954
1.395063332999996 -0.103 -0.067 1.023 -3.634 2.779 5.26
1.4023652920000131 -0.121 -0.089 1.047 -1.221 0.221 10.412
1.4146249169999976 -0.109 -0.139 1.004 4.26 -1.832 9.16
1.4219385830000135 -0.12 -0.071 1.014 4.305 3.733 21.687
1.4341926250000085 -0.158 -0.1 1.027 5.992 0.641 14.359
1.4416099169999939 -0.167 -0.07 1.003 6.16 -2.679 13.481
1.4535114580000084 -0.155 -0.045 0.979 4.618 -6.176 12.779
1.4608054170000173 -0.121 -0.029 0.946 3.191 -7.229 10.634
1.4728150830000004 -0.104 -0.025 0.937 1.603 -7.046 10.229
1.484824666999998 -0.117 -0.037 0.906 1.519 -11.107 12.947
1.4921196669999972 -0.061 0.016 0.915 -2.321 -5.534 12.679
1.5042371670000136 -0.042 -0.031 0.908 -2.008 -1.916 10.489
1.5114169999999945 -0.065 -0.048 0.945 -1.84 1.779 11.977
1.5237336670000161 -0.106 -0.019 0.988 -3.046 2.168 12.092
1.5310708330000011 -0.114 -0.033 1.007 -3.863 1.305 9.496
1.543013292000012 -0.139 -0.022 1.031 -5.473 -2.031 8.435
1.5553066250000143 -0.114 -0.027 1.024 -6.061 -7.084 5.031
1.562610042000017 -0.086 -0.045 1.018 -5.908 -8.191 6.687
1.5746005000000025 -0.082 -0.041 1.002 -4.595 -9.756 6.725
1.5819112080000082 -0.047 -0.025 0.992 -4.267 -9.336 7.374
1.5939737500000035 -0.057 -0.035 0.99 -4.29 -6.557 11.267
1.6013043330000016 -0.096 -0.033 1.0 -2.84 -6.779 11.115
1.613303166999998 -0.104 -0.01 0.995 -2.344 -10.519 8.931
1.6251408749999996 -0.099 -0.034 0.971 -3.344 -12.672 12.969
1.6323482920000174 -0.095 -0.033 0.961 -3.794 -16.237 8.389
1.6444235000000162 -0.044 -0.037 0.945 -6.046 -19.061 8.29
1.6517034169999931 0.01 -0.085 0.915 -4.916 -12.771 -1.649
1.6637200419999942 0.023 -0.086 0.896 -4.603 -7.542 -4.359
1.671184750000009 0.009 -0.049 0.948 -4.458 2.718 0.359
1.683252500000009 -0.042 -0.092 1.002 -2.504 8.977 2.206
1.6952145420000022 -0.096 -0.055 1.031 -5.366 10.137 -0.366
1.7025875829999961 -0.133 -0.093 1.057 -4.221 11.038 -5.817
1.7146038749999946 -0.178 -0.148 1.045 -3.42 -1.031 -6.122
1.721945667 -0.135 -0.106 1.003 0.008 -9.763 -2.916
1.7339377080000133 -0.087 -0.094 0.997 -0.649 -3.473 -1.809
1.7412519169999996 -0.124 -0.113 0.979 1.435 -6.282 -3.588
1.7532366670000101 -0.086 -0.059 0.952 2.374 -7.305 -5.023
1.759365416999998 -0.058 -0.05 0.916 0.924 -2.008 -3.916
1.7727743750000116 -0.047 0.008 0.956 0.076 0.359 -5.061
1.7852865419999944 -0.07 0.05 0.99 0.328 1.076 1.061
1.7925627500000019 -0.086 -0.002 0.981 -2.221 -1.863 0.046
1.8046183750000182 -0.078 0.034 0.988 -5.389 -2.511 -3.397
1.8118718329999979 -0.081 0.032 0.979 -6.809 -6.573 -0.55
1.8239722920000077 -0.088 -0.003 1.011 -8.947 -12.366 -0.351
1.8310642499999972 -0.076 -0.054 0.973 -10.931 -12.565 -4.908
1.8427730420000046 -0.041 -0.047 0.966 -6.153 -8.573 -14.901
1.8550539580000134 -0.047 -0.062 0.965 -9.282 -8.771 4.366
1.8623611670000173 -0.048 -0.065 0.983 -5.878 -3.16 0.817
1.8743568330000073 -0.08 -0.091 1.02 -5.809 -1.908 5.298
1.8816770420000068 -0.097 -0.131 1.018 -2.931 -2.557 2.336
1.8936888329999988 -0.074 -0.091 1.007 -0.435 -0.031 1.519
1.9012581670000088 -0.064 -0.094 0.989 1.947 2.496 2.901
1.9132316250000088 -0.271 0.055 1.102 4.733 -30.847 20.527
1.920768291999991 0.028 -0.006 0.957 4.351 -3.443 2.618
1.933086166999999 -0.142 0.013 1.004 -3.832 4.863 14.626
1.944753458000008 -0.135 -0.017 1.011 -4.916 -16.931 -1.115
1.952168042000011 0.02 -0.018 0.946 -5.969 -8.008 4.55
1.9642623750000041 -0.045 -0.08 0.918 -1.74 -6.679 10.977
1.9710205000000087 -0.02 -0.056 1.014 -3.626 -13.779 5.076
1.9833301669999912 -0.001 -0.059 0.984 -1.695 -6.237 11.115
1.9903984999999977 -0.049 -0.043 1.009 -1.885 -4.924 10.389
2.002750249999991 -0.028 -0.088 0.989 -3.656 -3.397 5.42
