Time AX AY AZ GX GY GZ
0.013861207999980252 0.046 0.031 0.972 -3.26 0.618 0.313
0.026083332999974118 0.048 0.034 0.98 -3.489 1.74 -0.13
0.033104999999977736 0.061 0.043 0.984 -2.611 1.489 -0.794
0.04558337499997833 0.057 0.038 0.996 -2.756 1.725 -0.282
0.05312599999996337 0.047 0.039 0.973 -2.519 0.634 -0.275
0.06534254199999623 0.042 0.021 0.986 -2.015 -0.405 -0.702
0.07262737499996774 0.043 0.021 0.983 -1.71 0.046 -0.031
0.08508070799996403 0.045 0.031 0.966 -1.725 0.389 0.405
0.09235324999997374 0.043 0.035 0.967 -2.359 -0.359 0.763
0.10461595799995393 0.051 0.035 0.97 -3.038 -0.58 1.145
0.11217483299998321 0.066 0.047 0.971 -3.855 -0.71 0.817
0.12440799999995988 0.081 0.043 1.006 -3.672 0.534 0.527
0.1319047499999897 0.064 0.04 0.984 -1.649 1.939 -1.534
0.144179041999962 0.056 0.031 0.984 -0.664 1.305 -2.634
0.15173920799998086 0.042 0.024 0.984 0.206 0.473 -2.282
0.1641182919999551 0.037 0.016 0.97 -0.023 0.527 -0.427
0.17144170799997482 0.034 0.007 0.958 1.733 0.153 -0.481
0.18365320799995288 0.024 0.017 0.948 1.725 -0.237 -0.359
0.1959762079999905 0.039 0.028 0.969 0.511 -1.565 -0.405
0.20325716700000385 0.039 0.041 0.967 -0.42 -0.771 -0.702
0.21555895799997415 0.041 0.04 0.986 -0.183 -0.611 -1.153
0.223014457999966 0.049 0.031 0.989 0.168 0.069 -0.672
0.23527674999996862 0.031 0.02 0.999 -1.168 0.718 1.618
0.2427983329999961 0.039 0.027 0.985 -1.374 0.366 2.351
0.25511062499998616 0.034 0.024 0.978 -1.466 -0.015 3.328
0.26258058299998766 0.048 0.031 0.978 -1.611 0.565 1.527
0.27484266699997306 0.052 0.022 0.979 -1.443 -0.924 0.282
0.2823605829999565 0.062 0.018 1.006 -1.496 0.275 -0.748
0.2946148749999793 0.057 0.015 1.003 -1.42 -0.229 -1.42
0.30195974999998043 0.051 0.006 1.009 -0.153 -0.305 -1.595
0.31408308299995724 0.031 -0.009 1.01 0.206 -0.466 -0.313
0.3210778330000039 0.035 -0.004 1.009 -0.252 -0.359 2.244
0.33374904199996536 0.048 0.012 1.002 -1.267 -0.221 4.427
0.34598270799995134 0.057 0.028 0.971 -1.725 -0.878 4.0
0.3535219999999981 0.079 0.04 0.981 -2.351 -0.863 2.458
0.36575654199998553 0.082 0.053 0.979 -2.214 0.275 0.71
0.37336129199997004 0.087 0.051 0.992 -1.519 1.351 -1.626
0.3856133329999807 0.077 0.051 0.99 -1.725 1.504 -2.145
0.3928148749999991 0.068 0.038 0.983 -2.954 1.397 -1.099
0.40504970799997864 0.063 0.031 0.984 -2.618 2.076 -1.145
0.4125711669999532 0.059 0.031 0.972 -0.733 2.0 -0.916
0.42481374999999844 0.062 0.04 0.98 -1.366 2.885 0.649
0.4323739170000067 0.058 0.022 0.975 -0.672 2.695 0.87
0.44486716699998397 0.055 0.018 0.976 0.924 3.282 0.855
0.45234054200000173 0.055 0.03 0.951 0.557 2.26 0.473
0.4648909169999911 0.041 0.033 0.938 -0.794 1.275 0.023
0.4721005419999642 0.032 0.014 0.936 -0.504 0.847 -1.275
0.4846429579999949 0.031 0.013 0.938 0.053 1.26 -0.931
0.4921237079999514 0.024 0.019 0.952 2.542 1.206 -0.947
0.5043880419999596 0.032 0.004 0.932 4.611 0.115 0.031
0.5118922080000061 0.041 0.007 0.962 3.763 -0.397 2.015
0.5244362919999617 0.064 0.033 0.944 4.351 -0.832 3.221
0.5319063329999949 0.066 0.05 0.948 2.832 -0.275 1.847
0.5441732919999822 0.06 0.041 0.933 1.527 -3.969 -7.084
0.5516607079999858 0.065 0.044 0.948 1.824 1.962 -2.802
0.5639895829999659 0.067 0.042 0.979 1.206 -1.618 -6.74
0.5698558329999628 0.07 0.031 0.965 7.916 -0.023 -7.076
0.5835186249999538 0.041 -0.003 0.986 -2.412 0.191 -3.473
0.5957471669999563 0.05 0.025 0.947 -0.26 2.87 -1.977
0.6032469169999786 0.043 0.036 0.936 -2.214 1.397 0.015
0.6155582079999817 0.039 0.04 0.955 -3.824 1.359 -0.16
0.6230479169999512 0.034 0.026 0.948 -3.473 1.336 -2.702
0.6352780830000029 0.041 0.044 0.958 0.13 1.092 -5.55
0.6427929579999727 0.046 0.027 0.948 1.214 1.519 -5.053
0.6550908749999849 0.031 0.025 0.959 -2.16 0.809 -2.702
0.6625754579999921 0.018 0.034 0.94 -2.405 0.092 -1.053
0.6748528329999886 0.023 0.019 0.945 -3.176 -1.603 0.603
0.6823381669999549 0.029 0.018 0.975 -5.153 0.718 3.031
0.6946025419999842 0.038 0.031 0.96 -5.008 0.557 3.206
0.7021704169999907 0.051 0.032 0.971 -2.733 -0.435 0.458
0.7141543749999641 0.056 0.028 0.969 -0.588 -1.061 -2.336
0.7216934169999831 0.056 0.021 0.971 0.153 -1.916 -3.687
0.733949999999993 0.056 0.029 0.963 -0.58 -1.336 -3.412
0.7459967919999713 0.065 0.039 0.948 -1.885 -1.45 -4.275
0.7535443749999899 0.068 0.047 0.96 -2.42 -0.725 -4.412
0.7657654999999863 0.072 0.033 0.98 -2.069 0.626 -3.618
0.773040917000003 0.072 0.028 0.988 -1.344 1.092 -3.053
0.7851923329999977 0.077 0.028 1.005 -0.237 1.634 -2.427
0.7924538749999783 0.066 0.033 1.008 -0.603 2.565 -0.305
0.8050888749999672 0.074 0.05 1.009 -1.534 4.802 1.573
0.8126070419999678 0.073 0.093 0.958 -5.672 3.321 -0.076
0.8248265830000037 0.054 0.056 0.958 -7.153 2.725 -0.053
0.8323413749999986 0.039 0.016 0.963 -7.389 3.412 -1.389
0.8446195419999754 0.043 0.016 0.964 -7.191 2.435 -2.672
0.8519210419999581 0.051 0.013 0.976 -6.779 2.344 -2.305
0.8641983750000009 0.056 -0.001 0.991 -6.412 2.832 -0.153
0.8717901249999613 0.049 0.019 0.986 -3.962 4.664 -3.382
0.8839627079999559 0.058 0.049 0.968 -3.534 3.107 -4.557
0.8898278749999804 0.024 0.036 0.962 -3.733 4.015 -5.237
0.903460124999981 0.022 0.039 0.952 -4.702 3.107 -6.084
0.9157449580000048 0.029 0.044 0.935 -5.718 1.153 -5.443
0.9233843749999551 0.032 0.016 0.96 -6.198 1.069 -5.168
0.9355800829999907 0.041 -0.013 0.992 -5.557 1.466 -2.45
0.9428038329999708 0.045 0.007 0.963 -7.29 1.435 -2.641
0.9550755419999746 0.046 0.02 0.952 -7.908 -1.305 -0.733
0.9625789169999734 0.04 0.005 0.984 -8.069 -0.145 0.962
0.9748269579999942 0.041 0.035 0.966 -7.74 1.969 0.496
0.9823916249999911 0.044 0.032 0.967 -9.649 1.992 1.023
0.9946034579999719 0.038 0.011 0.967 -7.542 1.786 -0.275
1.0021455419999938 0.041 0.008 0.983 -4.206 0.71 -1.519
1.0142977079999582 0.056 -0.003 0.979 -1.443 0.763 -3.679
1.0217457919999902 0.055 0.011 0.996 -1.718 0.206 -2.649
1.0337317919999691 0.058 -0.004 0.987 -1.939 -0.099 -3.252
1.0459536249999815 0.062 0.024 1.0 -3.542 0.092 -2.053
1.053481291999958 0.054 0.034 0.975 -7.214 -0.916 -2.725
1.0655668750000018 0.048 0.019 1.007 -7.107 -1.412 -3.641
1.0730382079999572 0.041 0.013 1.017 -8.916 0.748 -1.397
1.0853124999999864 0.044 0.014 1.011 -7.679 1.519 -1.557
1.0928175829999986 0.031 0.01 1.012 -5.344 1.328 -1.29
1.104813791999959 0.043 0.03 0.983 -5.985 -1.603 -1.931
1.1124477500000012 0.039 0.031 0.965 -7.824 -1.557 -2.824
1.1243708330000004 0.044 -0.009 0.972 -9.977 -3.779 -3.305
1.1316746669999702 0.024 -0.028 0.985 -8.832 -1.817 -6.099
1.1437066670000036 0.051 -0.006 1.0 -9.214 -1.519 -6.015
1.1560170829999947 0.04 -0.013 1.002 -9.618 -0.298 -5.374
1.163317749999976 0.019 -0.002 0.985 -8.58 -1.099 -6.557
1.1752837500000055 0.009 0.006 0.949 -7.221 -4.206 -8.305
1.1828061249999564 0.016 0.005 0.95 -8.435 -6.412 -6.817
1.1948284999999714 0.018 -0.058 1.003 -3.107 -6.0 -6.84
1.2020967499999529 0.047 -0.048 1.045 -1.099 -0.817 -0.962
1.2143875419999972 0.07 -0.066 1.045 0.71 0.023 0.954
1.2218694579999578 0.066 -0.066 1.076 3.519 0.71 3.321
1.23438625 0.068 -0.001 1.026 1.069 0.626 4.595
1.2416284579999797 0.089 0.041 0.965 -0.611 -2.084 1.725
1.2539098749999766 0.089 0.055 0.982 -2.221 -2.389 -2.847
1.259831166999959 0.068 0.029 0.995 -3.588 -1.13 -7.527
1.2734634169999595 0.062 0.01 1.013 -3.069 0.534 -8.641
1.285746291999999 0.057 -0.021 1.028 -2.252 0.809 -7.122
1.2930331249999654 0.059 -0.042 1.047 -0.435 0.847 -5.489
1.305282166999973 0.05 -0.003 1.022 -0.527 1.443 -7.725
1.3125663330000066 0.073 0.017 1.002 -4.26 -2.763 -6.092
1.3249454169999808 0.043 -0.007 1.002 -3.191 -2.046 -7.229
1.331831124999951 0.053 0.013 0.969 -3.618 -2.908 -9.198
1.344432917000006 0.054 0.004 0.983 -5.565 -4.588 -9.214
1.3516228749999755 0.056 -0.01 0.995 -5.282 -4.29 -9.176
1.363704332999987 0.041 -0.018 1.008 -2.084 -4.748 -10.137
1.3757709579999755 0.041 -0.012 0.998 -0.466 -4.382 -7.802
1.3830639169999586 0.039 -0.039 1.023 -0.061 -5.198 -4.947
1.3953082919999815 0.052 0.005 0.978 0.611 -3.87 -5.656
1.4026379169999927 0.055 -0.008 0.996 2.626 -6.496 -5.351
1.414861041999984 0.062 -0.002 1.019 4.489 -3.802 -6.0
1.4224334169999793 0.059 0.017 0.984 6.359 -4.763 -7.954
1.434640207999962 0.049 0.014 0.963 4.519 -6.855 -8.786
1.441919582999958 0.052 -0.012 0.972 2.511 -9.733 -7.45
1.453957541999955 0.051 -0.011 0.977 -11.931 -4.992 -8.611
1.4659834169999613 0.061 -0.016 1.006 -15.603 -4.992 -4.504
1.473286416999997 0.063 -0.011 0.997 -9.656 -4.985 -4.214
1.485290999999961 0.068 0.036 0.968 -13.191 -8.557 -3.527
1.4925945829999705 0.075 -0.0 0.997 -8.397 -9.962 -3.282
1.5045939169999656 0.062 -0.01 0.984 -11.282 -6.74 -4.924
1.5119026669999585 0.074 0.003 0.967 -12.718 -6.252 -7.412
1.523937999999987 0.073 -0.023 0.999 -10.87 -6.244 -6.847
1.5300213749999898 0.065 -0.057 0.98 -8.809 -5.809 -7.229
1.5434920419999685 0.066 -0.056 1.013 -4.756 -5.527 -2.069
1.555554083000004 0.064 -0.082 1.023 -4.351 -3.282 4.099
1.5628005419999909 0.004 -0.087 0.909 -12.626 -0.176 6.878
1.575081832999956 0.057 0.081 0.891 -16.916 -7.061 6.275
1.5823252920000073 0.082 0.041 0.964 -15.779 -6.969 0.443
1.5946220829999902 0.082 0.006 0.981 -16.779 -4.611 -3.046
1.6016786669999874 0.079 -0.014 0.991 -17.321 -3.824 -3.641
1.6136980829999743 0.072 -0.04 0.988 -19.504 -4.611 -2.305
1.6258395829999586 0.09 -0.067 1.019 -19.084 -3.802 -1.046
1.6330854579999823 0.098 -0.074 1.012 -14.344 -3.611 2.305
1.6453082919999815 0.07 -0.066 1.002 -9.405 -1.672 2.496
1.652589832999979 0.097 0.01 0.938 -10.672 -4.992 -1.191
1.6646073329999922 0.106 -0.012 0.961 -10.115 -4.855 -4.031
1.6719107079999844 0.089 -0.044 0.999 -11.779 -1.695 -3.405
1.6839628329999528 0.088 -0.058 0.992 -12.748 -0.832 -1.267
1.6959459999999922 0.077 -0.083 1.016 -13.305 0.824 2.466
1.7032523329999663 0.063 -0.081 0.991 -11.115 -0.015 2.794
1.7155388329999823 0.066 -0.102 1.01 -3.115 0.153 2.099
1.723056291999967 0.066 -0.097 1.007 3.015 1.42 1.702
1.7353134169999862 0.1 0.016 0.918 -0.252 -3.389 -2.802
1.7425324999999816 0.113 0.03 0.94 1.641 -4.496 -7.069
1.7548698749999971 0.113 -0.026 0.988 2.71 -2.901 -7.305
1.762138666999988 0.11 -0.04 0.991 -0.992 -0.656 -6.13
1.774402499999951 0.094 -0.08 1.029 -0.435 1.13 -4.176
1.7819234579999943 0.083 -0.101 1.038 -4.641 2.206 1.206
1.794149541999957 0.088 -0.074 1.022 -0.26 4.122 3.275
1.8016700419999552 0.057 -0.084 0.979 5.061 4.321 4.366
1.8140247919999979 0.068 -0.027 0.933 1.015 -1.176 2.489
1.8260073330000068 0.086 -0.026 0.953 0.969 -1.771 -0.458
1.8332479579999585 0.084 -0.073 0.99 -2.015 -1.931 -0.046
1.845561416999999 0.096 -0.085 1.026 -2.038 1.588 0.885
1.8530229169999757 0.092 -0.102 1.033 -5.198 3.595 2.489
1.8653113749999761 0.086 -0.096 1.017 -2.649 1.656 3.237
1.8729023329999563 0.066 -0.101 1.006 2.817 1.382 3.618
1.8851346249999779 0.059 -0.108 1.001 10.763 0.763 4.718
1.8925854169999639 0.062 -0.077 0.99 14.611 2.198 4.55
1.9048294579999947 0.093 0.021 0.922 6.313 -3.527 0.237
1.912134917000003 0.109 -0.005 0.962 1.634 -4.412 -2.992
1.9244804169999838 0.12 -0.033 0.992 -2.313 -2.779 -4.305
1.931366582999999 0.111 -0.033 0.999 -8.527 -3.603 -4.412
1.9437189999999873 0.115 -0.045 0.976 -7.16 -4.015 -5.26
1.9557262919999516 0.115 -0.05 1.009 -8.046 -3.359 -4.672
1.9630050829999846 0.115 -0.059 1.021 -1.924 -2.794 -1.374
1.9752707079999823 0.119 -0.03 0.991 -4.435 0.359 0.817
1.9829787499999725 0.097 -0.043 0.995 -5.611 0.588 2.84
1.9950893749999636 0.09 -0.021 0.969 -5.489 2.748 2.985
2.002601332999973 0.109 0.005 0.94 -6.855 0.176 -0.122
2.014615249999963 0.11 -0.053 1.006 -4.206 1.092 -0.924
2.022160041999996 0.115 -0.048 1.004 -5.779 2.076 -1.344
2.034139624999966 0.098 -0.058 1.014 -4.084 3.069 -1.473
2.0416370419999907 0.085 -0.079 1.002 -1.664 3.55 0.954
2.0539450829999737 0.071 -0.085 1.012 0.763 2.809 2.611
2.061503499999958 0.066 -0.041 0.971 -0.695 0.595 2.321
2.073743666999974 0.07 -0.015 0.965 -1.847 -0.336 0.397
2.0857994169999756 0.089 -0.057 1.014 -1.183 2.168 -0.702
2.093259708000005 0.087 -0.056 1.001 -2.13 1.832 -2.015
2.1052982919999863 0.067 -0.077 0.996 -3.756 1.786 -0.565
2.112842207999961 0.05 -0.09 1.007 -0.267 1.908 2.458
2.1250577499999963 0.059 -0.107 1.002 4.603 1.092 4.519
2.132632874999956 0.054 -0.073 0.986 6.595 0.107 5.573
2.1448528749999696 0.076 -0.044 0.974 1.481 -1.565 3.626
2.1523673329999724 0.077 -0.048 0.979 -3.443 -1.466 3.519
2.1647057920000066 0.083 -0.043 0.99 -5.855 0.42 3.145
2.1718960419999576 0.068 -0.057 0.987 -4.74 -0.641 2.557
2.1839528749999886 0.072 -0.068 1.0 0.107 -0.519 6.573
2.191433125000003 0.066 -0.102 0.996 6.191 -1.634 12.084
2.2036970419999875 0.062 -0.103 1.003 5.313 -1.336 17.412
2.2157342499999686 0.097 -0.032 0.96 -2.595 -2.473 13.336
2.2233377499999847 0.111 -0.076 1.003 -6.679 -0.489 9.473
2.2352886669999634 0.133 -0.023 1.022 -10.069 3.237 7.656
2.2428100419999737 0.112 -0.037 1.011 -8.771 1.046 3.786
2.255058792 0.106 -0.056 1.01 -8.611 1.221 4.565
2.262364708000007 0.094 -0.065 0.998 -7.191 -0.122 4.985
2.274601958000005 0.093 -0.065 0.99 -7.672 -1.206 4.885
2.2819076669999845 0.096 -0.062 0.991 -5.496 -0.748 3.221
2.294151541999952 0.111 -0.04 0.972 -4.802 -4.122 1.076
2.3014082919999623 0.118 -0.043 0.994 -5.855 -3.527 -0.122
2.3132945829999585 0.119 -0.056 0.993 -6.366 -3.466 -0.237
2.3256939999999986 0.122 -0.055 0.983 -6.221 -1.573 0.099
2.3330470829999967 0.1 -0.092 0.986 -4.282 -1.55 -0.168
2.3453552499999546 0.091 -0.102 0.994 -1.389 -1.885 0.863
2.35258216699998 0.098 -0.093 0.992 1.206 -2.87 1.252
2.3648323749999918 0.107 -0.079 1.013 -0.076 1.672 2.534
2.372456707999959 0.119 -0.009 0.965 -1.885 0.153 -2.0
2.384396082999956 0.13 -0.048 1.009 1.023 -0.405 -3.374
2.3919224579999536 0.125 -0.056 1.009 3.214 1.695 -2.504
2.4041644579999684 0.104 -0.083 1.01 5.229 1.221 -2.45
2.4116719169999783 0.104 -0.084 1.003 4.153 3.206 1.534
2.423952374999999 0.08 -0.102 0.997 7.802 5.252 4.145
2.4314955419999933 0.062 -0.132 1.03 16.74 8.092 8.695
2.443722832999981 0.065 -0.084 0.998 22.557 9.878 9.908
2.4560019580000017 0.073 -0.094 1.028 32.863 5.321 10.756
2.4633174169999847 0.08 -0.1 1.062 49.656 11.916 11.748
2.475285957999972 0.09 -0.023 0.989 55.435 13.145 10.626
2.482811207999987 0.092 0.007 0.987 52.55 10.313 8.046
2.495051124999975 0.07 0.053 0.913 44.832 7.916 0.832
2.5023250419999954 0.062 0.042 0.911 30.336 -1.015 -0.695
2.5145683329999997 0.058 0.029 0.959 13.626 3.634 -2.527
2.5221065419999604 0.085 0.006 1.002 -2.275 0.702 -1.855
2.5344090829999573 0.086 0.002 1.024 -12.947 6.023 -1.069
2.5416732919999845 0.074 -0.007 1.033 -14.282 8.282 0.435
2.5537133749999725 0.123 -0.087 1.891 -11.481 62.885 3.962
2.5660351669999955 0.044 0.188 1.082 -30.534 -27.748 5.122
2.573326624999993 0.116 -0.009 1.032 6.855 -11.496 1.412
2.5853228749999744 0.05 0.046 0.931 -14.214 -24.237 -0.542
2.592657083000006 0.094 -0.003 0.994 -7.305 -25.55 -2.275
2.6046700829999736 0.103 -0.01 0.975 -4.298 -21.718 -4.908
2.611976874999982 0.122 -0.039 1.036 2.947 -19.519 -5.74
2.6240302499999757 0.112 -0.056 1.052 -0.084 -14.603 -4.557
2.6360233329999687 0.1 -0.046 1.038 -2.321 -11.656 -2.565
2.6432654169999523 0.104 -0.053 1.038 -2.55 -9.855 1.626
2.65564466699999 0.104 0.002 0.975 -9.397 -9.137 1.435
2.6629515829999946 0.107 -0.013 0.998 -15.145 -8.954 0.214
2.674875208000003 0.122 0.013 0.968 -15.168 -10.786 -1.786
2.682187874999954 0.13 0.01 0.982 -7.412 -9.878 -4.023
2.6942092919999823 0.139 -0.03 1.0 -1.466 -10.198 -6.305
2.70169924999999 0.114 -0.06 0.986 1.115 -9.053 -5.702
2.713729374999957 0.14 -0.049 0.996 3.931 -8.489 -4.603
2.7259754169999724 0.147 -0.051 1.004 6.969 -7.534 -3.534
2.7332519579999826 0.134 -0.049 1.0 4.931 -5.519 -2.595
2.745561916999975 0.142 -0.037 0.992 4.489 -4.557 -2.725
2.7528765829999884 0.148 -0.039 0.997 2.443 -3.29 -1.878
2.765074083000002 0.135 -0.021 0.995 0.58 -1.443 -1.183
2.7723724580000066 0.126 -0.039 0.984 1.695 -3.015 -0.87
2.7846849169999928 0.12 -0.017 0.961 0.069 -4.176 -1.252
2.7919220419999533 0.12 -0.028 0.97 -5.252 -5.313 -1.405
2.80419866699998 0.13 -0.051 1.016 -9.336 -4.718 0.183
2.8112239999999815 0.134 -0.047 1.005 -11.282 -3.237 0.115
2.823351749999972 0.143 -0.032 0.998 -8.061 -2.71 -0.931
2.835805291999975 0.133 -0.042 0.995 0.824 -1.939 -1.321
2.843131707999987 0.134 -0.022 0.973 3.695 -3.031 -1.183
2.855575124999973 0.126 -0.04 0.986 1.076 -3.443 -0.756
2.8625534579999794 0.122 -0.052 0.998 -1.824 -2.58 0.237
2.8748072500000035 0.127 -0.048 0.986 -6.229 -0.046 0.053
2.8821887919999654 0.13 -0.065 1.01 -3.771 -1.588 1.557
2.894421999999963 0.147 -0.066 1.025 -1.084 0.626 2.664
2.901959207999994 0.149 -0.044 1.014 -1.008 4.244 4.229
2.9142207079999594 0.133 -0.025 0.967 6.756 4.664 4.229
2.9217693749999967 0.119 -0.049 0.975 8.527 4.466 4.527
2.9339592919999973 0.111 0.038 0.876 -0.305 0.359 2.832
2.9400572079999847 0.112 0.034 0.868 -17.939 -5.328 -2.641
2.953318582999998 0.138 -0.02 0.97 -19.466 -7.809 -1.435
2.965577499999995 0.171 0.005 0.96 -23.504 -5.443 -3.58
2.9725834999999847 0.144 -0.028 0.948 -18.672 -0.153 -3.092
2.9846159580000062 0.152 -0.051 0.988 -10.573 -2.672 -5.092
2.991916291999985 0.133 -0.069 0.951 -6.557 -4.023 -5.252
3.0042078749999632 0.142 -0.079 0.992 -3.504 -3.183 -3.0
3.0115322080000055 0.16 -0.061 0.992 0.008 -1.336 -2.924
3.0235119170000075 0.157 -0.035 0.973 -0.786 -1.008 -3.641
3.0357583329999898 0.15 -0.05 1.016 -9.053 2.87 -2.015
3.0430248749999578 0.123 -0.062 1.002 -5.008 3.908 -1.817
3.055292374999965 0.094 -0.106 0.991 -0.244 1.916 1.885
3.0628249579999647 0.094 -0.083 0.975 7.641 -0.748 3.046
3.075119124999958 0.113 -0.001 0.948 3.389 -2.672 1.229
3.0823622080000064 0.14 0.019 0.977 -10.733 -4.153 0.191
3.094385124999974 0.157 -0.062 1.045 -16.191 -1.542 -1.611
3.101650374999963 0.19 -0.035 1.048 -16.305 2.977 -2.298
3.1139858329999583 0.191 -0.051 1.031 -5.153 4.229 -3.282
3.1197711669999535 0.149 -0.083 1.05 -1.0 8.397 -1.168
3.133519124999964 0.134 -0.059 1.018 -8.107 10.084 -0.969
3.1456133329999716 0.139 -0.075 1.032 -5.603 10.87 -1.229
3.1528877920000014 0.131 -0.048 1.018 2.45 9.458 -2.725
3.16539579199997 0.119 -0.037 0.971 5.733 5.466 -5.618
3.1726094169999897 0.117 -0.063 0.998 6.137 3.221 -5.214
3.184858166999959 0.123 -0.056 1.002 6.687 2.13 -4.496
3.1923413749999554 0.121 -0.071 1.01 2.534 1.359 -4.099
3.2046038329999647 0.102 -0.092 1.013 -0.221 0.26 -2.359
3.211918999999966 0.105 -0.077 1.002 -6.527 0.397 0.626
3.2242024579999793 0.13 -0.06 1.002 -14.298 0.435 0.634
3.2314473330000055 0.133 -0.03 0.966 -13.71 -0.374 -1.74
3.243485041999975 0.134 -0.047 0.976 -9.45 -1.244 -2.817
3.2555576249999945 0.133 -0.061 0.968 -6.718 -0.901 -2.947
3.2628059580000013 0.127 -0.076 0.955 -1.321 -1.534 -4.153
3.275083916999961 0.133 -0.089 0.982 0.351 -1.366 -3.916
3.2823559579999824 0.126 -0.066 0.968 -2.305 -0.359 -2.924
3.2943827499999543 0.114 -0.045 0.954 -1.992 -0.786 -2.763
3.3016808329999776 0.112 -0.053 0.962 -1.618 -2.145 -3.366
3.313868207999974 0.124 -0.055 0.983 -1.443 -2.756 -4.725
3.3259400829999777 0.134 -0.037 0.995 -0.679 -3.679 -5.42
3.3332632080000053 0.126 -0.044 0.998 1.046 -1.069 -5.305
3.345538124999962 0.137 -0.08 1.017 -0.969 -1.198 -5.061
3.3528246249999825 0.123 -0.06 0.99 -2.557 -0.634 -5.153
3.3648606250000057 0.123 -0.071 0.988 3.664 -2.153 -4.122
3.3724849579999727 0.124 -0.083 1.013 8.084 -2.16 -2.687
3.3844337919999816 0.136 -0.073 1.002 3.626 -0.45 -1.794
3.3919319579999865 0.138 -0.054 1.006 0.527 0.588 -1.893
3.4041824999999903 0.126 -0.04 0.966 -1.168 0.305 -2.076
3.4115384169999743 0.123 -0.059 0.986 -3.954 -0.832 -2.443
3.4235089999999673 0.137 -0.057 0.999 -6.214 -0.099 -2.023
3.4355771669999626 0.15 -0.05 0.991 -2.908 -1.206 -1.412
3.443086416999961 0.133 -0.057 0.981 0.832 -0.023 -3.191
3.4550637079999547 0.137 -0.06 0.979 1.733 -0.275 -3.618
3.462643416999981 0.129 -0.083 0.994 1.405 -0.794 -2.16
3.4746514579999825 0.136 -0.055 0.949 -0.603 -0.168 -2.573
3.481947666999986 0.14 -0.074 0.967 0.832 -1.023 -1.534
3.4941914999999995 0.14 -0.05 0.96 -1.046 -0.71 -0.977
3.5015079169999694 0.138 -0.043 0.983 -5.58 0.168 -0.893
3.5137123749999546 0.124 -0.028 0.976 -5.359 0.626 -1.252
3.525848666999991 0.111 -0.039 0.98 -4.458 -0.374 -1.908
3.5330433329999664 0.101 -0.039 0.969 -4.901 -1.985 -3.221
3.545045874999971 0.124 -0.056 1.002 -3.71 -2.87 -3.489
3.5523345419999828 0.118 -0.074 1.028 -2.069 -2.649 -1.893
3.564681749999977 0.125 -0.053 1.018 -3.229 -1.626 -0.145
3.5719077079999693 0.119 -0.057 0.983 -1.153 -2.366 -0.397
3.5839564169999676 0.127 -0.067 1.015 2.214 -2.366 -0.443
3.5914354999999887 0.14 -0.056 0.999 0.885 -2.718 -0.504
3.6034968329999515 0.142 -0.048 0.993 0.038 -2.756 -1.321
3.6157384169999887 0.154 -0.059 1.009 -0.878 -2.466 -1.71
3.623053124999956 0.153 -0.07 1.021 -4.26 -1.229 -1.107
3.635137708000002 0.151 -0.054 0.988 -9.374 -0.176 -0.137
3.642387708000001 0.156 -0.069 0.992 -7.275 0.115 -0.496
3.654711916999986 0.169 -0.053 0.975 -5.0 0.336 -0.893
3.661999417000004 0.162 -0.04 0.943 0.802 -0.069 -4.145
3.6741832919999524 0.165 -0.063 0.965 6.473 -0.969 -5.038
3.681703499999969 0.179 -0.04 0.96 6.748 0.511 -6.405
3.6940027499999815 0.177 -0.045 0.969 5.885 1.29 -7.466
3.699860457999989 0.143 -0.056 0.964 6.504 1.885 -7.176
3.713527082999974 0.131 -0.064 0.959 2.13 1.374 -5.427
3.7257724169999733 0.119 -0.069 0.959 -0.863 0.962 -5.107
3.733304374999989 0.128 -0.077 1.001 0.443 0.061 -3.992
3.745575624999958 0.145 -0.058 0.998 0.672 1.29 -2.802
3.7529092080000055 0.15 -0.062 1.017 -1.084 3.435 -1.893
3.765127207999967 0.135 -0.043 0.999 -0.733 3.435 -2.305
3.7724830829999974 0.12 -0.063 0.991 -0.74 2.443 -4.038
3.784668582999984 0.122 -0.056 1.006 -2.16 1.969 -3.626
3.7919937499999605 0.124 -0.054 0.994 -4.443 1.733 -3.198
3.804281500000002 0.122 -0.051 0.987 -2.527 1.015 -3.534
3.811593416999983 0.137 -0.085 1.016 0.573 0.191 -2.74
3.823766832999979 0.144 -0.07 0.994 -3.298 2.313 -0.908
3.8359857499999634 0.135 -0.086 1.007 -3.351 2.58 -0.733
3.843262041999992 0.136 -0.055 0.967 -3.206 2.511 0.397
3.8555514579999794 0.134 -0.042 0.956 1.679 1.618 -1.672
3.8630693749999523 0.142 -0.055 0.961 3.695 0.183 -1.321
3.8753528329999654 0.15 -0.042 0.963 0.824 0.954 -2.13
3.88291129199996 0.135 -0.042 0.975 0.786 1.489 -3.275
3.8950757499999895 0.129 -0.064 0.97 0.275 1.481 -1.947
3.902397374999964 0.112 -0.049 0.947 -5.55 0.695 -1.176
3.914375624999991 0.115 -0.051 0.945 -7.901 -0.351 -1.176
3.9220365420000007 0.123 -0.054 0.986 -7.221 -1.328 0.145
3.9339549579999584 0.139 -0.039 0.98 -4.641 -1.252 -1.74
3.946017291999965 0.137 -0.06 0.992 -0.573 -1.809 -1.87
3.9535132499999577 0.142 -0.064 1.001 0.443 -1.015 -1.252
3.965581249999957 0.14 -0.052 0.99 0.656 -0.618 -1.519
3.9731285419999836 0.143 -0.061 0.99 2.015 -0.626 -0.641
3.9851279999999747 0.133 -0.052 0.975 0.489 -0.748 -0.672
3.9924562079999646 0.13 -0.072 0.981 -1.427 -0.489 -1.321
