Time,AX,AY,AZ,GX,GY,GZ,T
0.0000,-0.0130,-0.1120,1.0680,-12.0760,17.6640,-36.6720,34.2200
0.0005,-0.0310,-0.1550,1.0720,-11.0530,8.3510,-33.8780,34.2700
0.0009,-0.0550,-0.1120,1.0560,-4.4120,1.4200,-33.1150,34.2200
0.0014,-0.0610,-0.1140,1.1260,-2.0610,0.1980,-34.4270,34.1300
0.0018,-0.0460,-0.1020,1.1460,-3.3740,-5.4810,-35.8020,34.2700
0.0022,-0.0060,-0.0840,1.1270,-4.9920,-0.1530,-34.9770,34.1300
0.0026,-0.0180,-0.0970,1.1060,-2.6410,1.8470,-36.2140,34.1800
0.0030,-0.0190,-0.1020,1.0860,-2.2440,1.1300,-37.2370,34.1800
0.0035,-0.0010,-0.1070,1.0580,-1.3130,4.3820,-39.1910,34.2200
0.0039,0.0090,-0.1170,1.0830,-1.6180,7.8470,-41.1300,34.1800
0.0049,0.0240,-0.1320,1.0710,-2.7940,6.1370,-40.0760,34.2200
0.0054,0.0370,-0.1610,1.0130,2.5340,4.8850,-41.3130,34.3200
0.0059,0.0560,-0.1510,1.0620,8.0920,-0.1830,-40.7180,34.1800
0.0064,0.0910,-0.1320,1.1520,5.6790,-7.0230,-39.0840,34.2200
0.0069,0.0880,-0.0520,1.1590,3.2980,-2.4430,-37.1600,34.1800
0.0073,-0.0040,-0.0380,1.1830,1.0230,3.4810,-40.1830,34.1300
0.0076,-0.0550,-0.0560,1.1380,0.5040,5.2210,-46.9160,34.1300
0.0080,-0.0890,-0.0750,1.1240,2.3510,3.4200,-55.0840,34.1800
0.0084,0.0180,-0.0770,1.1270,2.4430,8.5040,-60.7630,34.2200
0.0087,0.0910,-0.0880,1.1430,3.0380,11.9540,-61.1450,34.2200
0.0091,0.1370,-0.0940,1.1040,3.8320,17.9390,-58.2440,34.1800
0.0095,0.1450,-0.1130,1.1350,3.8170,19.6790,-53.9080,34.2200
0.0098,0.1410,-0.0830,1.1090,0.1070,18.9620,-49.0080,34.1800
0.0102,0.0970,-0.0890,1.1210,2.6560,21.6340,-45.2820,34.1800
0.0106,0.0740,-0.0710,1.1540,3.5730,17.7560,-42.7180,34.2200
0.0109,0.0610,-0.0300,1.3100,-6.9010,19.2820,-35.6640,34.1800
0.0113,0.0460,-0.0030,1.2630,-5.5110,10.2440,-38.5650,34.1300
0.0116,-0.0690,-0.0260,1.2520,-5.4050,10.3510,-45.0990,34.2200
0.0120,-0.1020,-0.0480,1.1990,-7.8020,10.8090,-54.7020,34.2200
0.0123,-0.0720,-0.0870,1.0980,-9.2670,17.2520,-63.4810,34.2200
0.0126,0.0240,-0.0980,1.0230,-5.7860,22.0150,-68.3970,34.2700
0.0134,0.1210,-0.1180,1.0670,-2.2140,24.3970,-66.3210,34.2700
0.0139,0.1550,-0.1000,1.0680,-1.9390,23.2370,-60.1680,34.2200
0.0143,0.1710,-0.0780,1.0820,1.5110,18.9620,-52.4430,34.1800
0.0147,0.1280,-0.0930,1.1510,0.9310,12.7790,-45.5420,34.2200
0.0151,0.1340,-0.0630,1.1560,1.7560,1.1150,-38.9620,34.2200
0.0155,0.1220,-0.0610,1.2110,0.4270,0.2140,-32.9770,34.1800
0.0158,0.0840,-0.0410,1.2060,-2.6110,0.6720,-32.0000,34.2200
0.0162,0.0430,-0.0530,1.1630,-3.5730,9.1450,-35.2980,34.1800
0.0166,0.0160,-0.0420,1.1380,-3.8470,17.9080,-41.1150,34.1300
0.0170,0.0250,-0.0310,1.1500,-5.6340,22.7330,-46.2290,34.3200
0.0173,0.0780,-0.0220,1.1190,-8.5650,31.0840,-47.9690,34.1800
0.0177,0.0920,-0.0620,1.1720,-8.5800,32.2900,-48.8550,34.1300
0.0180,0.0950,-0.0860,1.1950,-14.0000,31.7710,-46.8400,34.1800
0.0183,0.0960,-0.0860,1.1720,-11.6030,32.9920,-47.4500,34.2700
0.0186,0.1070,-0.0840,1.1470,-7.8630,23.8320,-45.3590,34.2200
0.0189,0.1160,-0.0700,1.1210,-6.0760,19.9240,-42.3820,34.2700
0.0193,0.1120,-0.0760,1.1520,-4.5190,15.8170,-39.8470,34.1300
0.0197,0.1120,-0.0950,1.1540,-7.7710,23.3440,-38.4730,34.3200
0.0200,0.0770,-0.0880,1.1310,-8.6720,30.0000,-39.6030,34.1800
0.0203,0.0890,-0.1020,1.1580,-8.1680,30.2600,-41.2370,34.1300
0.0207,0.0870,-0.1000,1.1450,-8.3210,33.3440,-41.5420,34.1800
0.0210,0.0810,-0.1020,1.1240,-8.3360,34.5040,-41.3890,34.0800
0.0217,0.0790,-0.0830,1.1360,-7.1150,31.3440,-39.5880,34.1300
0.0220,0.0990,-0.0540,1.1650,-7.8470,26.3360,-35.3890,34.1800
0.0223,0.0600,-0.0890,1.1600,-12.2440,30.9010,-36.1980,34.3200
0.0225,0.0130,-0.1080,1.1660,-9.6340,27.6640,-39.3440,34.2200
0.0228,0.0110,-0.1090,1.0760,-9.3130,32.6260,-42.1370,34.2700
0.0231,0.0180,-0.1300,1.0800,-4.3050,34.4270,-44.7330,34.1300
0.0234,0.0590,-0.1180,1.1130,-1.7860,36.0000,-44.1530,34.1800
0.0236,0.0250,-0.1140,1.1790,0.1680,31.6640,-42.6260,34.2200
0.0239,0.0390,-0.0870,1.1770,0.8090,24.0460,-40.1830,34.2200
0.0242,-0.0270,-0.0870,1.2220,-1.7560,17.2370,-39.7560,34.1800
0.0245,-0.0470,-0.0650,1.2380,-5.9850,18.0610,-41.9690,34.3200
0.0247,-0.0490,-0.0620,1.2070,-9.2370,24.8850,-45.9690,34.1800
0.0250,0.0080,-0.0790,1.1550,-9.4960,27.8930,-48.9310,34.2700
0.0253,0.0570,-0.0850,1.1240,-9.6030,30.4580,-49.8630,34.2200
0.0256,0.0590,-0.1060,1.1200,-7.6640,32.1830,-48.5190,34.1800
0.0259,0.0490,-0.1100,1.1400,-7.1450,26.3050,-46.6410,34.2200
0.0261,0.0300,-0.0970,1.1540,-5.9540,19.8930,-45.8630,34.2200
0.0264,0.0530,-0.0950,1.1670,-2.9620,14.5800,-45.7400,34.1800
0.0267,0.0640,-0.0930,1.1670,-1.6950,13.7560,-45.1600,34.2200
0.0270,0.2010,-0.0510,1.2440,-9.7400,25.9690,-38.1980,34.2700
0.0272,0.0980,-0.1090,1.1460,-0.6260,16.1370,-41.0690,34.1300
0.0275,0.0300,-0.0510,1.2300,-8.2900,12.1680,-37.2060,34.2200
0.0278,-0.0200,-0.0770,1.1940,-10.4890,13.5880,-41.0690,34.1800
0.0281,-0.0340,-0.0780,1.2060,-12.4890,18.0920,-44.9770,34.2200
0.0284,0.0050,-0.0940,1.1860,-12.9160,16.5500,-48.6260,34.1800
0.0286,0.0480,-0.1070,1.1590,-11.2210,19.5880,-50.4270,34.2700
0.0291,0.0660,-0.1220,1.1290,-9.0690,21.7710,-50.8400,34.2200
0.0294,0.0740,-0.1410,1.1070,-7.2060,23.9390,-50.6720,34.0800
0.0296,0.0740,-0.1440,1.1180,-4.1070,19.1910,-48.4730,34.2200
0.0299,0.0720,-0.1340,1.1300,-4.4430,16.6110,-45.9080,34.2200
0.0301,0.0490,-0.1240,1.1240,-3.2820,17.8470,-44.7020,34.2700
0.0304,0.0230,-0.1150,1.1640,-7.3890,26.6410,-43.7710,34.2200
0.0306,-0.0420,-0.1140,1.1750,-6.2750,15.0990,-47.4660,34.2700
0.0309,0.0370,-0.0950,1.1360,-5.4500,15.2060,-50.0610,34.1300
0.0311,0.0220,-0.1150,1.1690,-6.9160,14.8400,-52.0150,34.2200
0.0314,0.1480,-0.0660,1.2740,-15.5110,25.0230,-47.1760,34.1800
0.0316,0.1240,-0.1120,1.1570,-11.1150,24.1830,-49.5420,34.2200
0.0319,0.0740,-0.1320,1.1430,-10.4120,24.2600,-50.1070,34.1300
0.0321,0.1160,-0.1360,1.1240,-9.4660,25.8020,-50.2600,34.2700
0.0324,0.0980,-0.1560,1.1510,-9.4960,28.9620,-48.6110,34.2200
0.0326,0.1050,-0.1420,1.1370,-8.0460,27.4960,-47.8930,34.2700
0.0329,0.0880,-0.1420,1.1300,-5.9850,28.1370,-47.3890,34.3200
0.0331,0.0830,-0.1560,1.0880,-2.8550,25.1600,-47.6030,34.2200
0.0334,0.1050,-0.1610,1.1380,-2.2600,25.7560,-45.2980,34.1800
0.0336,0.1100,-0.1380,1.1460,-0.5190,24.7630,-43.1150,34.2200
0.0339,0.0970,-0.1370,1.1770,-0.5950,25.6490,-40.5340,34.2700
0.0341,0.0640,-0.1260,1.1780,-2.8700,25.4050,-39.8020,34.2200
0.0344,0.0530,-0.1170,1.1610,0.5650,29.3440,-39.8630,34.3200
0.0346,0.0280,-0.1360,1.1680,0.6410,27.7100,-43.1300,34.1800
0.0349,0.0460,-0.1200,1.1760,2.6110,32.6720,-43.5270,34.3200
0.0351,0.0460,-0.1090,1.2250,1.5730,32.8700,-42.8090,34.2200
0.0353,0.0330,-0.0850,1.2460,-2.2750,32.0000,-41.1150,34.2700
0.0355,0.0180,-0.0820,1.2400,-4.3510,30.8550,-40.4120,34.2200
0.0358,-0.0170,-0.1160,1.1850,-3.1300,30.2440,-41.8020,34.2700
0.0360,-0.0440,-0.1410,1.1530,-3.5110,34.6560,-44.1980,34.1800
0.0362,-0.0430,-0.1520,1.1080,-1.7100,34.9310,-46.9770,34.2200
0.0364,-0.0210,-0.1480,1.1320,0.9620,33.0230,-48.0760,34.1800
0.0367,0.0130,-0.1470,1.1470,3.1150,26.5040,-46.3210,34.3200
0.0369,0.0460,-0.1370,1.1620,4.1980,21.4660,-43.9540,34.2200
0.0371,0.0540,-0.1180,1.2730,-1.6640,24.3210,-39.4960,34.3200
0.0373,0.0090,-0.0740,1.2350,-5.5570,17.1300,-37.4050,34.2200
0.0376,-0.0210,-0.1000,1.1690,-2.9160,21.2520,-40.9620,34.2700
0.0379,0.0000,-0.1360,1.1670,-1.9390,24.2900,-44.3210,34.2200
0.0382,0.0270,-0.1360,1.1760,-4.2290,27.6490,-44.9920,34.2200
0.0384,0.0470,-0.1330,1.2230,-6.2140,31.2370,-43.8630,34.2700
0.0386,0.0420,-0.1320,1.2030,-8.7180,30.5190,-41.8930,34.1300
0.0388,0.0210,-0.1350,1.1990,-11.1600,33.1450,-41.2210,34.2700
0.0391,-0.0590,-0.1180,1.1570,-10.6720,32.7330,-43.7560,34.3700
0.0393,-0.0510,-0.1220,1.1490,-6.9770,29.5110,-46.9770,34.2200
0.0395,0.0030,-0.1270,1.1490,-4.0460,25.2980,-47.2520,34.2700
0.0397,0.0430,-0.1250,1.1430,-1.2670,20.6870,-44.0920,34.2200
0.0399,0.0310,-0.1280,1.1730,-0.5500,16.4270,-41.0530,34.2200
0.0402,0.0120,-0.1300,1.2110,-1.8320,10.4730,-39.1760,34.1300
0.0404,-0.0220,-0.1300,1.1910,-3.8930,10.9770,-39.2210,34.2200
0.0406,-0.0440,-0.1420,1.1720,-3.9240,11.9850,-41.1300,34.2700
0.0408,-0.0290,-0.1470,1.1550,-3.2520,13.2520,-42.7940,34.2700
0.0410,-0.0180,-0.1550,1.1240,-1.9540,16.9470,-44.4430,34.2200
0.0412,-0.0090,-0.1500,1.1330,-2.1530,19.7400,-45.0840,34.2700
0.0415,0.0140,-0.1470,1.1200,-1.3590,17.8170,-44.5500,34.2200
0.0417,0.0140,-0.1310,1.1520,0.3970,13.9850,-43.1150,34.3700
0.0419,0.0030,-0.1480,1.1600,1.2670,10.6720,-42.9920,34.2700
0.0421,0.0000,-0.1520,1.1410,2.5190,11.6340,-44.0150,34.2200
0.0423,0.0080,-0.1500,1.1540,3.1600,12.9620,-44.9620,34.1800
0.0425,0.0420,-0.1310,1.1730,2.0460,14.7480,-44.0310,34.2200
0.0427,0.0440,-0.1230,1.1780,1.2980,16.0920,-42.3210,34.2200
0.0429,0.0090,-0.1290,1.1430,0.6260,15.4660,-42.0760,34.2200
0.0431,-0.0370,-0.1450,1.1140,1.4050,15.7100,-43.7710,34.1300
0.0433,-0.0230,-0.1260,1.1360,2.3820,14.0920,-45.0690,34.1800
0.0435,0.0020,-0.1230,1.1750,3.8930,12.9310,-45.2060,34.2700
0.0437,0.0240,-0.1110,1.2030,3.2820,12.5340,-43.8930,34.2200
0.0439,0.0450,-0.1010,1.1910,3.0230,10.6110,-42.0760,34.2700
0.0441,0.0410,-0.0820,1.2030,2.8700,7.9080,-40.6720,34.2200
0.0443,0.0300,-0.0770,1.2070,1.4960,8.2600,-41.2210,34.2700
0.0445,0.0610,-0.0920,1.2020,-0.1220,14.3050,-42.2290,34.1800
0.0450,0.0430,-0.1250,1.1910,-3.2670,23.5110,-44.8700,34.2200
0.0452,0.0340,-0.1250,1.1490,-3.7560,26.5040,-47.3280,34.1300
0.0454,0.0270,-0.1270,1.1650,-4.7790,27.6640,-48.8550,34.2200
0.0456,0.0560,-0.1150,1.1360,-4.4730,27.0380,-48.0460,34.2200
0.0487,0.0420,-0.1240,1.1270,-3.3590,26.1680,-46.7630,34.1800
0.0606,0.0120,-0.1230,1.1160,-3.2820,24.4270,-46.8550,34.1800
0.0676,0.0150,-0.1320,1.1260,-3.2520,25.2060,-47.2670,34.2200
0.0795,0.0060,-0.1400,1.1380,-3.1910,24.0920,-48.1370,34.1800
0.0866,0.0380,-0.1510,1.1180,-1.4810,24.4270,-47.1600,34.3200
0.0986,0.0600,-0.1550,1.1310,-0.9470,22.6560,-44.8240,34.2200
0.1056,0.0440,-0.1430,1.1550,0.2600,21.6640,-43.1450,34.2700
0.1178,0.0420,-0.1220,1.1780,-0.6720,23.0080,-41.5110,34.2200
0.1297,0.0070,-0.1090,1.1690,-0.8550,22.0000,-41.1760,34.1800
0.1368,0.0080,-0.1110,1.1390,0.6870,21.7860,-40.9770,34.1800
0.1491,-0.0210,-0.1080,1.1400,0.7790,21.4810,-42.6260,34.2200
0.1558,-0.0200,-0.1030,1.1290,2.3360,22.1680,-45.2980,34.2700
0.1680,-0.0300,-0.1060,1.1870,2.4730,23.0080,-47.7100,34.3200
0.1800,-0.0160,-0.1150,1.1830,1.1760,22.4580,-49.7100,34.2200
0.1871,-0.0090,-0.1240,1.1510,1.4810,23.0080,-50.0460,34.1800
0.1991,-0.0100,-0.1120,1.1570,1.2980,22.6870,-49.8930,34.2200
0.2060,0.0110,-0.0900,1.1630,2.7020,19.4500,-47.5570,34.2700
0.2184,-0.0060,-0.0910,1.1830,4.0000,16.1530,-45.9850,34.3200
0.2303,-0.0020,-0.0890,1.1760,2.3970,15.1760,-44.9770,34.2200
0.2375,-0.0270,-0.0900,1.1640,1.3890,12.4430,-45.1450,34.2700
0.2494,0.0040,-0.1150,1.1220,2.5190,13.2060,-46.6410,34.2200
0.2565,0.0180,-0.1350,1.1410,2.0760,15.6030,-47.8470,34.1800
0.2688,0.0300,-0.1440,1.1020,2.8850,18.2140,-49.4960,34.2700
0.2760,0.0420,-0.1530,1.0930,4.9310,19.3440,-49.5730,34.1300
0.2884,0.0570,-0.1350,1.1200,5.5420,16.5340,-48.0460,34.3700
0.3004,0.0450,-0.1220,1.1240,5.9540,13.8780,-46.4430,34.2200
0.3070,0.0280,-0.1030,1.1340,5.5730,12.8550,-45.5730,34.2200
0.3192,0.0230,-0.0990,1.1480,4.8850,12.8240,-46.2290,34.2700
0.3266,0.0170,-0.1170,1.1280,5.5110,14.0310,-47.9240,34.1300
0.3388,0.0180,-0.1150,1.1340,6.3820,15.3740,-49.1150,34.2700
0.3508,0.0490,-0.0980,1.1660,6.2900,15.5420,-48.2140,34.2200
0.3577,0.0510,-0.0780,1.1940,5.1910,14.3360,-46.9010,34.1300
0.3700,0.0450,-0.0640,1.1980,2.7180,14.4730,-45.1450,34.2700
0.3770,0.0100,-0.0620,1.1500,1.4200,14.0610,-45.8780,34.2200
0.3890,0.0050,-0.0730,1.1420,0.7180,18.3210,-47.9690,34.2200
0.3963,0.0090,-0.0790,1.1280,1.3740,19.2980,-49.8780,34.2700
0.4084,0.0130,-0.0700,1.1460,2.3210,20.0000,-51.5730,34.2200
0.4206,0.0310,-0.0720,1.1620,2.0920,17.9240,-52.7330,34.1800
0.4277,0.0460,-0.0590,1.1690,1.5420,16.5190,-52.6720,34.1800
0.4399,0.0360,-0.0740,1.1610,0.8700,15.9690,-53.7250,34.3200
0.4470,0.0350,-0.0700,1.1530,-0.4730,18.2750,-55.9080,34.2700
0.4589,0.0640,-0.0570,1.1320,-0.8240,21.9240,-58.0150,34.3200
0.4644,0.1040,-0.0510,1.1680,-2.2290,24.6560,-57.0230,34.1800
0.4780,0.1010,-0.0350,1.1530,-4.3970,26.7020,-54.5190,34.2200
0.4900,0.0370,-0.0440,1.1840,-4.5500,25.1300,-54.0610,34.2200
0.4971,0.0170,-0.0840,1.1600,-6.0610,25.2980,-56.5190,34.1800
0.5091,0.0260,-0.1250,1.1210,-5.6790,27.5110,-59.7560,34.2200
0.5158,0.0370,-0.1340,1.1370,-5.5420,31.5270,-61.1910,34.2200
0.5281,0.0600,-0.1150,1.1570,-4.9620,31.7400,-60.9310,34.1800
0.5399,0.0600,-0.0870,1.1740,-5.3280,34.8700,-58.7790,34.2200
0.5469,0.0230,-0.0830,1.1420,-6.1680,34.2900,-57.7560,34.2700
0.5589,0.0070,-0.0870,1.1320,-5.9240,32.6560,-56.8850,34.1800
0.5662,-0.0200,-0.1160,1.1060,-3.5730,27.8170,-57.7560,34.2200
0.5781,0.0040,-0.1480,1.1310,-1.1300,26.0610,-58.5340,34.1800
0.5903,0.0540,-0.1580,1.1470,-0.3360,26.3820,-57.3440,34.3200
0.5969,0.0760,-0.1770,1.1140,1.9240,27.0990,-54.9310,34.2200
0.6093,0.0670,-0.1760,1.1240,3.2210,27.5730,-51.9240,34.3200
0.6165,0.0520,-0.1600,1.1720,2.9010,26.2140,-48.9160,34.2200
0.6286,0.0290,-0.1190,1.2020,1.7250,20.8700,-46.5500,34.1800
0.6407,0.0160,-0.1070,1.2240,-0.5040,23.5880,-46.4730,34.2200
0.6475,0.0030,-0.0940,1.1970,-1.3890,21.8020,-47.5570,34.3200
0.6599,0.0060,-0.1010,1.1400,0.5950,22.1370,-49.4350,34.1800
0.6668,0.0340,-0.1390,1.1620,3.4050,25.9390,-50.9620,34.2200
0.6787,0.0370,-0.1560,1.1300,3.6180,29.3890,-51.8320,34.1800
0.6859,0.0350,-0.1440,1.1180,6.5340,31.5110,-52.5950,34.2700
0.6982,0.0230,-0.1160,1.1760,8.4120,29.1760,-52.8850,34.2200
0.7104,0.0650,-0.0840,1.2030,8.2440,28.7790,-51.9080,34.1800
0.7177,-0.0040,-0.1060,1.2370,10.5500,28.1530,-50.2750,34.1300
0.7295,0.0010,-0.1040,1.2490,10.1680,14.6410,-51.6030,34.1800
0.7363,0.0280,-0.0910,1.2010,7.8320,21.3280,-51.5110,34.1300
0.7485,0.0170,-0.1000,1.2300,6.5040,20.1980,-51.3740,34.2200
0.7606,0.0260,-0.0910,1.2030,3.4500,24.8550,-50.8400,34.2700
0.7679,0.0000,-0.0910,1.1930,2.0460,28.1370,-50.3050,34.2200
0.7798,-0.0240,-0.0960,1.1710,1.5110,29.0530,-51.0530,34.2200
0.7866,-0.0190,-0.0990,1.1670,1.4660,29.6490,-51.8930,34.1800
0.7990,-0.0180,-0.0900,1.1340,3.2820,27.4050,-51.9850,34.2200
0.8046,-0.0300,-0.0770,1.1600,5.4500,23.2060,-52.0920,34.3700
0.8180,0.0050,-0.0610,1.1890,6.3820,19.5420,-51.5420,34.1800
0.8300,0.0010,-0.0600,1.2140,6.5340,16.6720,-49.8780,34.1300
0.8370,0.0010,-0.0660,1.1990,6.4120,14.4580,-48.5340,34.2700
0.8493,-0.0170,-0.0760,1.1860,5.5420,15.0690,-48.6410,34.2200
0.8561,-0.0510,-0.0740,1.1630,4.5800,14.9770,-50.2750,34.2200
0.8684,-0.0770,-0.0790,1.1360,4.3660,12.9010,-53.0530,34.2200
0.8803,-0.0470,-0.0460,1.1410,4.6560,11.0230,-54.9770,34.2200
0.8874,-0.0130,-0.0360,1.1620,4.9470,11.5270,-56.0460,34.1800
0.8993,-0.0000,-0.0410,1.1420,3.3740,12.2750,-55.5880,34.2700
0.9065,-0.0070,-0.0400,1.0860,3.7860,12.5340,-56.4120,34.2200
0.9185,0.0160,-0.0480,1.1070,5.1300,13.0530,-55.5110,34.2700
0.9306,0.0450,-0.0500,1.1440,5.2820,6.8850,-52.4890,34.2200
0.9377,0.0490,-0.0540,1.1100,4.8400,-0.8700,-50.0150,34.2200
0.9497,0.0900,-0.0550,1.1120,4.5340,0.0920,-47.3890,34.2700
0.9567,0.0860,-0.0420,1.1170,6.0150,3.9390,-44.1070,34.3200
0.9694,0.0610,-0.0280,1.1360,8.6410,1.5730,-42.4730,34.1800
0.9766,0.0350,-0.0130,1.1820,8.7330,4.6870,-42.4890,34.3200
0.9889,0.0070,0.0120,1.2040,6.6720,5.7400,-43.8320,34.3200
0.9942,0.0070,0.0090,1.2090,7.7400,5.4660,-46.6260,34.2700
1.0080,0.0180,-0.0020,1.2420,6.3360,2.7790,-49.7100,34.2200
1.0203,0.0640,0.0090,1.2260,4.1680,5.4500,-50.7940,34.2700
1.0275,0.0970,0.0000,1.2020,3.5570,7.7250,-50.3970,34.2700
1.0397,0.1060,-0.0160,1.1780,3.3590,12.1070,-49.6490,34.3200
1.0466,0.0850,-0.0190,1.1670,2.9770,11.0690,-49.3740,34.2700
1.0589,0.0850,-0.0080,1.1560,4.1980,14.0760,-50.2140,34.1300
1.0658,0.0750,0.0020,1.2040,5.3280,13.5880,-51.6490,34.3200
1.0782,0.1030,0.0030,1.2470,3.8780,17.3890,-51.6640,34.2700
1.0904,0.1170,-0.0010,1.2250,0.0920,20.2750,-51.0990,34.1300
1.0973,0.1000,-0.0150,1.1710,-0.7790,24.1220,-51.1760,34.1800
1.1097,0.1060,-0.0210,1.1290,-0.2600,27.8320,-52.0760,34.2700
1.1163,0.1080,-0.0160,1.1440,-0.4120,30.4430,-51.1910,34.3200
1.1286,0.0390,-0.0130,1.1590,-1.2820,26.7330,-51.2820,34.1800
1.1407,0.0060,-0.0310,1.1900,-1.4810,23.8780,-54.9470,34.2200
1.1476,0.0610,-0.0480,1.1700,-2.7940,25.7860,-56.9160,34.1800
1.1597,0.1330,-0.0730,1.1330,-1.6490,26.7940,-54.8550,34.1800
1.1666,0.0840,-0.0620,1.1290,-1.6490,20.6560,-53.8630,34.2200
1.1788,0.1380,-0.0830,1.1320,3.0990,23.1600,-49.8020,34.3700
1.1856,0.0870,-0.0470,1.1750,-0.3970,20.1220,-45.5270,34.2200
1.1978,0.0850,-0.0240,1.1580,-0.0310,20.2140,-42.4270,34.1300
1.2099,0.0490,-0.0310,1.1500,0.4120,19.0530,-41.9390,34.1800
1.2170,0.0460,-0.0600,1.1320,4.5800,19.5880,-43.8170,34.2200
1.2292,0.0150,-0.0440,1.1530,1.7560,17.4660,-46.2600,34.2700
1.2363,0.0340,-0.0520,1.1390,4.6110,22.4890,-50.8700,34.1800
1.2486,0.0520,-0.0550,1.1590,5.5880,24.9160,-52.7480,34.2200
1.2608,0.0550,-0.0400,1.1920,6.2900,23.4810,-53.5270,34.2700
1.2677,0.0680,-0.0180,1.2490,4.9920,23.2670,-52.8240,34.3200
1.2798,0.0770,-0.0140,1.2360,3.2980,19.1600,-50.2900,34.2700
1.2868,0.0790,-0.0140,1.2150,2.4580,17.1450,-47.7560,34.2700
1.2990,0.0730,-0.0090,1.2030,1.8170,16.9770,-46.2440,34.3200
1.3062,0.0610,-0.0120,1.2140,1.3740,16.9310,-46.1830,34.2700
1.3183,0.0540,-0.0030,1.2230,0.5190,17.1910,-48.0460,34.2200
1.3305,0.0630,-0.0200,1.2350,-0.9920,19.1760,-48.7630,34.3200
1.3372,0.0690,-0.0370,1.1800,-1.2210,23.0230,-50.4270,34.1800
1.3495,0.0480,-0.0620,1.1830,-1.0080,27.6490,-52.4120,34.2200
1.3564,0.0710,-0.0690,1.1660,-0.4730,26.6260,-53.4810,34.2700
1.3686,0.0520,-0.0780,1.1250,4.1070,16.5190,-54.0000,34.1800
1.3807,0.1040,-0.0790,1.1500,5.8930,16.7480,-51.7560,34.1300
1.3876,0.1280,-0.0690,1.1930,1.6490,23.6490,-47.2980,34.2700
1.3999,0.1010,-0.0640,1.1470,3.8470,19.0840,-45.1300,34.2200
1.4070,0.1160,-0.0740,1.1090,3.6950,17.5420,-43.0840,34.1800
1.4191,0.0850,-0.0670,1.1430,6.4890,18.6560,-42.8400,34.2700
1.4263,0.0860,-0.0560,1.1640,7.2670,20.1220,-44.0760,34.1300
1.4386,0.0610,-0.0300,1.1890,6.9310,21.1150,-46.2900,34.1800
1.4506,0.0470,-0.0180,1.2050,6.1830,19.3890,-49.0690,34.2200
1.4573,0.0930,-0.0330,1.1900,4.1530,25.2370,-50.6560,34.3200
1.4696,0.0840,-0.0620,1.1360,2.7940,23.8930,-50.3050,34.1800
1.4768,0.1080,-0.0540,1.1290,3.6490,29.4350,-50.1070,34.2200
1.4890,0.1060,-0.0460,1.1560,3.6790,25.0690,-48.3660,34.2700
1.4961,0.1050,-0.0410,1.1560,3.4660,22.9010,-45.9850,34.2700
1.5080,0.0870,-0.0290,1.1210,5.7710,21.4960,-45.0380,34.2200
1.5204,0.0530,-0.0300,1.1750,3.2820,20.4730,-44.7020,34.1800
1.5272,0.0620,-0.0260,1.1760,4.4730,16.0150,-44.7020,34.3200
1.5393,0.1170,-0.0520,1.1170,7.0080,24.2440,-44.5340,34.3200
1.5463,0.0910,-0.0570,1.2070,7.0080,18.1680,-43.2370,34.2700
1.5584,0.0930,-0.0420,1.1480,6.3360,20.9770,-42.1680,34.2200
1.5705,0.0370,-0.0240,1.1520,7.2670,28.2440,-43.5570,34.2700
1.5779,0.0000,-0.0100,1.2000,4.5800,28.7790,-45.6340,34.3200
1.5900,0.0040,-0.0040,1.1660,4.8400,25.8630,-48.7790,34.3200
1.5967,0.0520,-0.0080,1.2330,3.8780,19.3280,-49.8780,34.2700
1.6092,0.0800,-0.0040,1.2290,3.7560,18.9160,-48.6260,34.2200
1.6160,0.0760,-0.0300,1.2180,4.5340,18.2290,-47.3890,34.1300
1.6283,0.0780,-0.0260,1.2340,1.7250,18.3210,-46.5500,34.1800
1.6405,0.0660,-0.0190,1.2150,1.6640,14.5040,-45.8630,34.2200
1.6475,0.0610,-0.0310,1.1880,1.8930,14.8240,-45.8470,34.1800
1.6599,0.0670,-0.0480,1.1740,0.7020,17.9390,-46.1530,34.2200
1.6669,0.0410,-0.0340,1.1560,-0.2140,21.3130,-47.8320,34.2200
1.6789,0.0390,-0.0440,1.1650,0.3360,24.0760,-49.7560,34.1800
1.6861,0.0530,-0.0180,1.1940,0.7940,23.8320,-49.8930,34.2200
1.6981,0.0380,0.0020,1.2220,0.3820,23.2980,-49.9540,34.1800
1.7104,0.0210,0.0160,1.2360,0.5040,18.0610,-49.8630,34.2200
1.7174,0.0380,0.0640,1.1670,-2.3050,23.5730,-49.8020,34.1300
1.7295,0.0160,0.0050,1.1580,3.9390,18.3820,-52.6560,34.2700
1.7368,0.0620,0.0170,1.1840,1.8630,18.1070,-52.4270,34.2200
1.7488,0.0720,-0.0200,1.2390,0.0000,16.5040,-49.8930,34.2200
1.7559,0.0540,0.0450,1.1850,-1.0990,18.3050,-48.1220,34.2700
1.7682,0.0440,0.0250,1.2010,-4.2600,23.4350,-48.5190,34.2200
1.7804,0.0170,0.0230,1.1290,-6.0610,23.1450,-49.6640,34.1800
1.7874,0.0070,-0.0030,1.1080,-6.1680,26.7180,-51.5570,34.3200
1.7992,0.0030,-0.0130,1.1180,-6.2750,22.5800,-54.1370,34.2200
1.8064,0.0170,-0.0140,1.0930,-4.9470,17.0380,-55.2980,34.3700
1.8185,0.0170,-0.0630,1.0590,-4.9010,17.9850,-55.1150,34.2200
1.8306,0.0580,-0.0350,1.0680,-3.6950,20.3970,-53.8630,34.2700
1.8377,0.0680,-0.0100,1.1140,-3.1450,14.4890,-52.1680,34.3200
1.8495,0.0610,0.0060,1.1110,0.1070,18.3820,-51.4960,34.3200
1.8568,0.0500,0.0170,1.1830,0.5800,17.9080,-50.7630,34.1800
1.8689,0.0750,0.0270,1.1660,-0.3510,16.1830,-48.6870,34.2200
1.8762,0.0760,0.0150,1.1170,1.6790,18.0310,-48.5190,34.3200
1.8884,0.0830,-0.0260,1.1020,3.0080,22.8090,-48.9920,34.1800
1.9003,0.0450,-0.0140,1.1190,4.1370,22.4730,-49.3740,34.2200
1.9074,0.0290,-0.0090,1.1480,3.2670,14.8700,-50.5500,34.2700
1.9197,0.0280,0.0060,1.1850,4.0460,16.0760,-52.4430,34.2200
1.9268,0.0600,0.0190,1.2370,1.2980,19.7250,-52.7630,34.2200
1.9387,0.0590,0.0390,1.2390,1.1450,24.4120,-53.1760,34.1800
1.9461,0.0670,0.0390,1.2030,-0.5040,25.0230,-52.9920,34.2200
1.9581,0.0710,0.0270,1.1740,1.8320,28.1070,-53.5570,34.2700
1.9706,0.0590,-0.0220,1.1690,1.0690,31.9390,-53.3440,34.2200
1.9775,0.0310,-0.0610,1.1250,1.0530,32.5340,-54.2750,34.3200
1.9896,0.0110,-0.0450,1.1250,1.1600,33.9240,-55.4050,34.2700
1.9970,0.0260,-0.0330,1.1350,2.8400,30.8240,-56.4580,34.2200
2.0090,0.0590,-0.0030,1.1450,5.9080,22.7180,-53.3280,34.2200
2.0159,0.1060,0.0280,1.1420,8.6560,24.1370,-49.1450,34.1800
2.0282,0.0550,0.0100,1.1710,12.9620,19.0080,-48.0460,34.3200
2.0403,0.0800,0.0390,1.2090,14.8240,15.2820,-45.3590,34.2700
2.0476,0.0510,0.0630,1.2590,14.3510,7.7100,-43.0690,34.2700
2.0596,0.0380,0.0760,1.2500,13.5880,4.6110,-43.6030,34.3200
2.0667,0.0660,0.0570,1.2320,12.6870,11.3890,-45.3890,34.2700
2.0789,0.0350,0.0800,1.2740,7.2520,15.3890,-47.3590,34.2200
2.0860,0.0750,0.0890,1.2960,3.5110,19.2980,-50.1220,34.2700
2.0981,0.0740,0.0880,1.2740,-0.8700,25.2820,-51.0990,34.2200
2.1104,0.0340,0.0830,1.2450,-3.4660,30.0920,-52.6110,34.2200
2.1176,0.0230,0.0750,1.1960,-5.8020,34.0310,-55.8020,34.2700
2.1296,0.0030,0.0630,1.1370,-4.8550,38.6110,-60.1370,34.2200
2.1368,0.0750,0.0220,1.1310,-1.9390,44.6110,-61.3280,34.3200
2.1487,0.0730,0.0020,1.1270,1.6030,36.3970,-59.7100,34.2700
2.1562,0.0650,0.0290,1.1490,1.9850,30.5500,-57.8170,34.2200
2.1680,0.0880,0.0420,1.2120,0.2290,28.7020,-52.4430,34.1800
2.1805,0.0720,0.0600,1.1900,-1.1300,21.8020,-47.4960,34.2700
2.1874,0.0380,0.0580,1.1400,-2.1370,21.0230,-45.9690,34.2200
2.1995,0.0270,0.0520,1.1160,-2.3970,23.8930,-46.3360,34.2700
2.2067,0.0140,0.0260,1.1070,-4.0150,30.8400,-48.2750,34.2200
2.2190,0.0200,0.0220,1.1030,-4.9920,34.8700,-51.3890,34.2200
2.2245,0.0320,0.0170,1.0730,-3.1450,35.0840,-52.9310,34.2200
2.2377,0.0480,0.0240,1.1230,-2.1220,32.6720,-53.0380,34.2200
2.2501,0.1590,0.0160,1.1770,-2.1980,22.9010,-48.4430,34.2700
2.2570,0.0970,0.0500,1.1370,-2.6720,19.4350,-43.0230,34.2700
2.2694,0.0820,0.0420,1.1690,-3.5110,24.1980,-38.5650,34.2200
2.2765,0.0420,0.0220,1.1110,-0.4890,16.7940,-41.2520,34.2700
2.2888,0.0420,0.0510,1.2280,-2.6410,15.1910,-40.4270,34.3200
2.3009,-0.0060,0.0630,1.2210,-6.9470,15.5270,-42.0150,34.2200
2.3076,-0.0260,0.0460,1.1880,-8.4270,18.0760,-46.6410,34.2700
2.3198,-0.0110,0.0170,1.1700,-10.6110,20.7480,-51.3740,34.2200
2.3268,0.0350,0.0160,1.1190,-9.2820,25.7710,-54.5040,34.1800
2.3390,0.0960,-0.0280,1.1460,-1.8780,32.7020,-56.7020,34.2200
2.3507,0.1500,-0.0470,1.1650,-2.9770,56.1530,-55.8930,34.2200
2.3578,0.0570,0.0280,1.2530,-0.1220,50.7940,-53.9080,34.2700
2.3701,0.0120,0.0300,1.2260,0.4120,38.3510,-49.6340,34.2200
2.3773,0.0220,-0.0150,1.1670,4.2900,29.4500,-47.4660,34.2700
2.3894,-0.0130,-0.0070,1.1500,6.4580,27.0230,-47.0080,34.2700
2.3960,-0.0430,0.0260,1.1840,8.5950,16.5340,-46.4270,34.3200
2.4082,0.0370,0.0300,1.2040,7.7400,23.0840,-45.7100,34.1800
2.4205,0.0220,0.0490,1.2160,7.7560,24.0460,-45.7400,34.3200
2.4277,0.0490,0.0400,1.2160,6.5040,40.4730,-45.8780,34.1800
2.4398,0.0260,0.0300,1.2430,1.2980,29.0230,-45.2820,34.2700
2.4469,0.0660,0.0550,1.2490,-1.8170,36.3510,-43.7400,34.3200
2.4592,0.0390,0.0470,1.2960,-5.8780,31.4050,-41.3740,34.0800
2.4660,-0.0180,0.0640,1.2030,-9.5570,30.9770,-39.2820,34.2200
2.4784,-0.0920,0.0500,1.1630,-6.4120,22.2600,-42.1370,34.3200
2.4905,-0.0690,0.0250,1.1440,-6.0000,23.5110,-44.6870,34.2700
2.4978,-0.0570,0.0120,1.1390,-4.2440,23.8930,-47.8170,34.2200
2.5097,-0.0420,0.0180,1.1510,-2.4270,27.5880,-50.5190,34.3700
2.5163,-0.0940,0.0230,1.1530,-0.1530,20.7480,-53.7250,34.2700
2.5287,-0.0200,0.0330,1.1630,-0.1070,34.2600,-54.6720,34.2200
2.5406,0.0060,0.0410,1.3240,-6.0150,23.8320,-50.9160,34.2700
2.5479,0.0190,0.0740,1.2080,-10.1980,16.2140,-44.7330,34.3200
2.5597,-0.0190,0.0520,1.1700,-7.6490,13.1150,-42.6870,34.2200
2.5666,-0.0040,0.0430,1.1900,-7.4960,9.3130,-41.0380,34.2700
2.5788,0.0050,0.0400,1.1730,-7.9690,14.4120,-40.7480,34.3200
2.5860,-0.0050,0.0250,1.1790,-8.5650,20.7480,-42.6110,34.1800
2.5978,-0.0170,-0.0100,1.1020,-3.9240,25.7860,-46.3210,34.2700
2.6100,0.0540,-0.0140,1.2220,-7.0380,31.2060,-46.8850,34.2200
2.6171,-0.0080,0.0380,1.1790,-9.9080,31.8170,-45.1150,34.2700
2.6292,0.0370,0.0090,1.1900,-9.1300,38.7020,-44.9310,34.1300
2.6360,-0.0500,0.0120,1.1800,-7.4660,36.9310,-44.3510,34.1800
2.6479,-0.0750,0.0090,1.1410,-5.2980,34.3210,-45.8320,34.2700
2.6604,-0.0500,-0.0310,1.1110,-1.7710,29.1760,-46.4270,34.2200
2.6673,-0.0320,-0.0140,1.1100,1.9850,29.4500,-45.3740,34.2700
2.6789,-0.0560,-0.0040,1.1630,4.9620,28.8700,-44.5950,34.2200
2.6863,-0.0770,0.0390,1.2240,3.2980,25.1450,-44.8850,34.2200
2.6988,-0.0630,0.0320,1.2480,2.5500,21.3130,-46.5800,34.1800
2.7106,-0.0250,0.0460,1.2600,3.0990,21.5110,-46.2900,34.2200
2.7175,0.0000,0.0590,1.2740,-0.2600,18.9160,-43.5880,34.2700
2.7297,0.1350,-0.0290,1.0890,6.8850,33.5110,-42.8550,34.2700
2.7368,-0.0170,0.0940,1.2940,-6.1370,49.7860,-43.8930,34.3200
2.7488,-0.0440,0.0680,1.3350,-14.5190,50.8090,-45.3440,34.2700
2.7608,-0.0800,0.1010,1.3540,-16.1980,52.5340,-46.4730,34.3200
2.7678,-0.0540,0.0800,1.3140,-15.2670,48.5500,-48.1370,34.1800
2.7796,-0.0860,0.0400,1.2740,-10.7020,43.7710,-50.6560,34.2700
2.7865,-0.0550,0.0190,1.2330,-10.5040,37.2820,-50.7630,34.2200
2.7985,-0.0430,0.0130,1.2410,-9.5420,32.3820,-49.0230,34.1800
2.8105,-0.0270,0.0230,1.2400,-9.7100,37.2820,-47.4050,34.2200
2.8175,-0.0350,0.0390,1.2390,-12.8240,39.1450,-46.0150,34.2200
2.8297,-0.0490,0.0180,1.2150,-12.8240,36.9920,-44.9160,34.2700
2.8365,-0.0760,-0.0020,1.2190,-10.7630,37.3280,-45.9080,34.2200
2.8483,-0.0450,0.0080,1.2330,-10.7330,36.3210,-46.1070,34.2700
2.8603,-0.0470,0.0050,1.2350,-9.3440,31.4200,-44.5040,34.1300
2.8676,-0.0260,-0.0000,1.2280,-6.9470,29.4050,-42.4580,34.3200
2.8795,-0.0360,0.0080,1.2580,-5.7860,28.5040,-40.4120,34.2700
2.8864,-0.0470,0.0400,1.2890,-6.6720,27.0530,-38.1070,34.2200
2.8983,-0.0850,0.0380,1.2680,-5.4200,26.0310,-37.6640,34.2700
2.9106,-0.1070,0.0350,1.2510,-3.6950,26.0610,-38.8240,34.1800
2.9174,-0.1310,0.0300,1.2580,-4.0610,27.1300,-41.6790,34.2200
2.9297,-0.1260,0.0130,1.2630,-5.4660,28.4730,-44.4270,34.2700
2.9366,-0.1220,0.0090,1.2720,-6.8850,25.0990,-45.6490,34.2200
2.9487,-0.0890,0.0180,1.2910,-9.7100,19.7710,-44.8850,34.2200
2.9606,-0.1030,0.0210,1.2800,-14.1830,20.5650,-42.5040,34.2700
2.9676,-0.1180,0.0060,1.2070,-13.0690,16.7020,-42.5040,34.2200
2.9794,-0.1080,-0.0210,1.1810,-9.8930,17.7400,-43.0380,34.1800
2.9865,-0.0860,-0.0400,1.1550,-7.1910,16.0920,-42.3360,34.2200
2.9983,-0.0820,-0.0340,1.1600,-4.1220,15.3740,-41.5110,34.2200
3.0104,-0.0750,-0.0220,1.2150,-3.3280,10.5340,-40.1980,34.2700
3.0170,-0.0810,-0.0180,1.1690,-3.1300,9.6640,-39.6180,34.3200
3.0293,-0.0900,-0.0250,1.1670,-1.4200,7.4350,-40.1680,34.1800
3.0360,-0.0730,-0.0040,1.2450,-3.8470,10.2750,-40.0460,34.1800
3.0482,-0.0680,0.0160,1.2060,-5.8630,7.5570,-39.9850,34.2200
3.0605,-0.0460,-0.0070,1.1930,-6.1220,10.8850,-39.8930,34.2700
3.0671,-0.0390,-0.0230,1.1590,-6.5950,14.9010,-39.8630,34.2200
3.0791,-0.0510,-0.0350,1.0920,-2.9470,16.5190,-40.0310,34.2200
3.0858,-0.0520,-0.0410,1.1210,2.2140,15.6950,-40.3660,34.2700
3.0982,-0.0520,-0.0130,1.1880,4.7180,11.3440,-39.5880,34.2200
3.1102,-0.0540,0.0240,1.2480,2.2290,8.4120,-37.6950,34.1800
3.1172,-0.0680,0.0320,1.2540,-1.8170,4.3820,-37.1910,34.2700
3.1294,-0.0770,0.0160,1.2180,-5.2670,5.2820,-38.2750,34.2200
3.1364,-0.0820,-0.0090,1.1780,-5.3440,5.8780,-40.8700,34.1800
3.1487,-0.0520,-0.0100,1.1790,-5.4050,8.4270,-41.7860,34.2200
3.1607,-0.0510,0.0080,1.2340,-6.5340,9.0230,-40.8400,34.1800
3.1677,-0.0520,0.0060,1.2170,-7.1760,7.7560,-39.7860,34.2700
3.1799,-0.0410,-0.0120,1.1690,-5.7710,8.4430,-40.0920,34.2200
3.1866,-0.0270,-0.0340,1.1680,-4.3210,9.7860,-40.2600,34.2700
3.1990,-0.0480,-0.0150,1.1930,-3.8470,9.6180,-39.1600,34.3200
3.2058,-0.0440,-0.0120,1.2250,-3.5570,2.9620,-38.8550,34.1800
3.2180,-0.0150,-0.0230,1.2620,-7.1300,4.9470,-37.2670,34.1800
3.2303,-0.0110,-0.0210,1.2010,-5.9390,5.2060,-37.0530,34.2200
3.2369,-0.0220,-0.0300,1.2010,-5.0380,7.7560,-37.0230,34.2700
3.2493,-0.0300,-0.0400,1.2050,-7.7400,12.4730,-36.9160,34.2200
3.2564,-0.0490,-0.0310,1.2050,-8.7180,11.1300,-38.0150,34.2200
3.2682,-0.0510,-0.0310,1.2180,-5.7560,11.1300,-39.5420,34.3200
3.2800,0.0040,-0.0310,1.2410,-6.7790,11.4500,-39.1760,34.2200
3.2871,-0.0030,-0.0090,1.2700,-7.8470,11.3130,-36.8550,34.2700
3.2990,0.0380,-0.0090,1.2810,-9.2060,16.1980,-34.8240,34.2200
3.3062,-0.0470,0.0020,1.2080,-7.4200,7.0530,-35.8630,34.2200
3.3180,-0.0150,-0.0120,1.2290,-5.6790,10.9770,-37.0990,34.2700
3.3303,-0.0390,-0.0020,1.2460,-6.7330,10.1070,-37.6790,34.2200
3.3372,0.0010,-0.0060,1.2260,-4.7940,8.0920,-38.3970,34.2700
3.3493,0.0380,-0.0060,1.2750,-5.2060,10.9770,-36.8550,34.1800
3.3560,0.0560,-0.0080,1.2710,-7.6030,10.4580,-33.6030,34.2200
3.3685,0.0660,-0.0050,1.3100,-11.7250,19.9390,-29.4960,34.2700
3.3804,-0.0210,0.0030,1.1740,-8.0150,10.7480,-29.8320,34.2200
3.3872,-0.0670,0.0020,1.2240,-5.4500,7.3440,-33.1300,34.3200
3.3992,-0.0370,0.0160,1.2690,-6.0150,8.5650,-37.6340,34.2200
3.4063,-0.0170,0.0370,1.3050,-6.1070,7.9690,-41.1150,34.3200
3.4187,0.0380,0.0080,1.2850,-9.4350,12.0610,-41.8020,34.1800
3.4308,0.0470,-0.0130,1.2140,-9.5570,14.7180,-41.2370,34.2200
3.4375,0.0140,-0.0360,1.1780,-6.1830,18.5040,-41.7100,34.3200
3.4499,-0.0070,-0.0310,1.2310,-6.4430,22.8240,-42.0000,34.1800
3.4566,-0.0360,0.0100,1.3080,-10.2440,20.2440,-42.2750,34.2200
3.4687,-0.0300,-0.0070,1.2870,-12.5500,12.7630,-41.6030,34.2700
3.4807,-0.0080,-0.0300,1.2180,-12.6720,12.0610,-40.5950,34.2700
3.4875,-0.0120,-0.0430,1.1710,-12.3050,11.7710,-40.7940,34.2200
3.4994,-0.0300,-0.0680,1.1460,-9.9240,13.5110,-41.8170,34.1800
3.5062,-0.0010,-0.0770,1.1210,-8.2140,17.7100,-43.3740,34.3200
3.5180,0.0150,-0.0790,1.1770,-6.1830,18.6560,-43.8320,34.2700
3.5304,0.0260,-0.0740,1.1790,-6.5500,18.5340,-41.3740,34.3200
3.5369,0.0330,-0.0730,1.1920,-4.9620,13.3590,-39.6180,34.3200
3.5492,0.0450,-0.0790,1.1650,-4.4890,12.9470,-37.2670,34.2700
3.5561,0.0290,-0.0710,1.1920,-4.9310,13.8630,-35.1450,34.2200
3.5684,-0.0020,-0.0740,1.2020,-4.9620,12.6560,-35.3740,34.2200
3.5803,0.0020,-0.0750,1.1790,-5.4660,15.1450,-36.2900,34.1800
3.5876,0.0050,-0.0690,1.1640,-4.1980,17.9390,-37.6180,34.2200
3.5993,-0.0000,-0.0790,1.1970,-4.6110,27.3590,-39.8930,34.2700
3.6059,0.0040,-0.0560,1.2080,-5.5420,17.5880,-41.4500,34.2700
3.6185,0.0160,-0.0510,1.2170,-5.2670,20.2600,-43.1450,34.2200
3.6305,0.0430,-0.0650,1.1720,-5.6180,20.1680,-44.3360,34.1800
3.6373,0.0870,-0.0670,1.1500,-4.9770,24.3050,-44.1370,34.2200
3.6495,0.1080,-0.0460,1.2020,-7.9240,27.5730,-40.6720,34.2200
3.6563,0.0760,-0.0220,1.2050,-12.0610,34.3510,-37.7100,34.2200
3.6685,0.0440,-0.0600,1.1680,-10.0610,24.5340,-36.7630,34.2200
3.6804,-0.0160,-0.0370,1.1200,-13.5570,26.9470,-40.3820,34.2700
3.6873,0.0320,-0.0730,1.1530,-11.9390,22.3660,-42.9310,34.3200
3.6993,0.0510,-0.0930,1.1080,-10.9770,24.5650,-44.4430,34.2200
3.7060,0.0620,-0.0940,1.1110,-10.0610,24.2900,-43.8780,34.1800
3.7182,0.0570,-0.0940,1.1040,-6.6870,22.2600,-42.5040,34.2200
3.7305,0.0340,-0.0950,1.1040,-4.8400,18.2140,-40.2750,34.1800
3.7373,-0.0010,-0.0870,1.1380,-3.3280,13.6340,-39.0230,34.2700
3.7491,-0.0350,-0.0660,1.1580,-2.1980,5.7250,-40.4890,34.3200
3.7561,-0.0050,-0.0650,1.1830,-1.7100,3.2210,-41.2980,34.2700
3.7680,0.0190,-0.0740,1.1480,-2.0760,5.0080,-41.2060,34.2200
3.7803,0.0390,-0.0810,1.1530,-2.2140,9.0530,-39.6340,34.1300
3.7874,0.0320,-0.0680,1.1800,-3.1910,8.2290,-37.8320,34.3200
3.7995,0.0040,-0.0480,1.2020,-3.4200,6.3360,-36.7020,34.2200
3.8065,0.0000,-0.0560,1.1910,-1.9690,2.3660,-36.7020,34.2700
3.8188,-0.0290,-0.0630,1.2080,0.0460,-1.5730,-38.4580,34.2700
3.8307,-0.0090,-0.0680,1.2090,1.0080,-1.9540,-40.4430,34.1300
3.8380,0.0250,-0.0570,1.1990,1.8320,-3.0380,-41.2670,34.1800
3.8500,0.0440,-0.0460,1.2440,2.5190,-4.2140,-41.1450,34.2200
3.8568,0.0650,-0.0480,1.2380,-0.6260,-2.5500,-39.3280,34.2200
3.8691,0.0670,-0.0560,1.1880,-3.2980,2.2440,-38.3210,34.1800
3.8764,0.0110,-0.0680,1.1710,-3.8780,3.8320,-38.8700,34.2200
3.8886,-0.0020,-0.0680,1.1520,-4.6870,2.7790,-40.9620,34.0800
3.9003,-0.0000,-0.0460,1.1920,-6.6410,5.6790,-41.8020,34.3700
3.9075,-0.0010,-0.0360,1.2070,-5.3890,2.1530,-43.0990,34.2200
3.9192,0.0290,-0.0410,1.1760,-6.0310,1.7100,-44.2140,34.1800
3.9266,0.0470,-0.0660,1.1530,-4.0460,-0.0760,-44.9160,34.2200
3.9385,0.0680,-0.0730,1.1780,-2.8400,-0.1680,-44.8400,34.2200
3.9506,0.0880,-0.0650,1.1750,-3.2820,-1.1760,-43.8930,34.2700
3.9575,0.1170,-0.0650,1.1970,-1.5570,-3.0380,-41.7250,34.3200
3.9697,0.1240,-0.0440,1.1810,-1.4200,-6.5800,-38.3210,34.2700
3.9768,0.1220,-0.0630,1.1640,0.7020,-9.8780,-35.8320,34.2200
3.9888,0.1250,-0.0480,1.1260,2.7020,-11.6790,-34.4730,34.3200
