Time,AX,AY,AZ,GX,GY,GZ,T
0.0000,-0.0380,-0.0850,1.2180,-0.2900,30.3510,-51.1910,33.8000
0.0004,-0.0180,-0.0850,1.2090,-0.5040,30.0000,-51.0530,33.8900
0.0009,-0.0140,-0.0680,1.2030,-1.1150,29.4810,-49.6180,33.8500
0.0013,-0.0030,-0.0720,1.2270,-3.6340,31.9540,-47.0530,33.8900
0.0017,0.0060,-0.0850,1.2020,-4.6720,32.3970,-44.1220,33.8500
0.0021,-0.0160,-0.0930,1.1610,-4.5040,30.9620,-42.0460,33.8900
0.0026,-0.0520,-0.0810,1.1430,-2.9470,35.6340,-41.8930,33.8000
0.0031,-0.0780,-0.0850,1.1480,-2.4430,28.4890,-43.5730,33.8500
0.0035,-0.0460,-0.0890,1.1240,-3.3440,28.7180,-44.5500,33.8000
0.0039,-0.0980,-0.0370,1.1340,-3.6490,21.7560,-45.6790,33.8500
0.0044,-0.0570,-0.0540,1.1590,-5.7250,14.7790,-46.8090,33.8500
0.0049,0.0230,-0.0740,1.1380,-7.5110,22.1680,-46.8550,33.8000
0.0054,0.0890,-0.1070,1.1490,-9.7710,46.0000,-46.0310,33.8500
0.0058,0.0300,-0.1000,1.1300,-12.1370,69.8020,-48.5950,33.9900
0.0062,-0.0310,-0.1190,1.0410,-10.7940,71.6790,-48.6870,33.9400
0.0066,-0.0460,-0.1560,1.0360,-7.8170,60.9770,-48.8400,33.8500
0.0070,-0.0310,-0.1500,1.0460,3.1450,63.3890,-50.0920,33.8500
0.0073,-0.0590,-0.1140,1.0850,9.9690,61.8630,-49.1300,33.8500
0.0077,-0.0330,-0.0790,1.1120,12.8400,50.8550,-44.1370,33.8900
0.0080,-0.0330,-0.0370,1.1740,14.0000,48.2440,-40.2290,33.8900
0.0084,-0.0570,-0.0360,1.1970,14.6110,45.0990,-35.7400,33.9400
0.0088,-0.0800,-0.0150,1.2050,12.1680,44.5650,-32.8240,33.8900
0.0091,-0.1180,-0.0300,1.1900,12.4430,47.7250,-33.6340,33.8500
0.0095,-0.1640,-0.0260,1.2250,7.5270,47.5730,-38.4580,33.8900
0.0099,-0.1710,-0.0330,1.2480,-2.4730,48.1830,-45.8630,33.8900
0.0102,-0.1520,-0.0540,1.2690,-7.7100,53.7860,-52.7020,33.8500
0.0107,-0.0970,-0.0820,1.2130,-14.5650,60.5190,-58.0310,33.8000
0.0112,-0.0570,-0.1160,1.1660,-18.2750,63.8630,-57.5420,33.8500
0.0116,-0.0600,-0.1150,1.1570,-16.6410,65.5110,-52.8550,33.8500
0.0119,-0.0960,-0.0810,1.1790,-12.3210,61.6030,-47.0530,33.8500
0.0124,-0.1580,-0.0560,1.2040,-11.2980,55.4500,-42.9620,33.8500
0.0128,-0.2470,-0.0560,1.2250,-9.2670,48.4730,-44.1680,33.8000
0.0132,-0.2570,-0.0660,1.2130,-8.7790,44.5950,-48.6560,33.9400
0.0136,-0.2310,-0.0810,1.1830,-8.0310,43.3590,-53.8630,33.8500
0.0142,-0.1890,-0.1060,1.1870,-7.8780,43.6490,-56.9770,33.8000
0.0146,-0.2090,-0.1170,1.1760,-8.3820,43.4810,-56.1530,33.8500
0.0150,-0.2390,-0.1350,1.1860,-13.2210,42.6560,-55.7560,33.8000
0.0154,-0.2480,-0.1360,1.1490,-11.3890,41.3130,-55.1910,33.8900
0.0158,-0.2500,-0.1390,1.1000,-11.7560,40.6410,-54.7630,33.8500
0.0163,-0.2680,-0.1450,1.1020,-10.7790,38.0920,-54.7630,33.8000
0.0166,-0.3080,-0.1100,1.1110,-12.8090,30.1830,-55.3130,33.8500
0.0169,-0.2190,-0.1490,1.0620,-5.1760,37.2820,-54.5800,33.8900
0.0172,-0.2440,-0.1490,1.0940,-1.9390,35.2670,-55.6640,33.8500
0.0176,-0.2030,-0.1700,1.0810,-0.6870,35.8630,-57.3740,33.8500
0.0179,-0.1800,-0.1850,1.1020,1.8630,33.3740,-56.1680,33.8000
0.0183,-0.1290,-0.1940,1.0830,6.0610,30.1530,-53.1760,33.8500
0.0188,-0.1990,-0.1380,1.1230,4.0310,27.3590,-49.4200,33.8500
0.0193,-0.2300,-0.1310,1.0920,7.0690,29.3130,-49.1300,33.8900
0.0196,-0.2330,-0.1250,1.1010,11.4810,30.8090,-49.3130,33.8500
0.0199,-0.1980,-0.1030,1.1720,9.6790,27.9080,-49.0230,33.8900
0.0203,-0.1590,-0.1030,1.1800,11.7100,35.3890,-46.6720,33.7500
0.0206,-0.1710,-0.0640,1.1800,11.2670,26.5500,-42.0310,33.8500
0.0209,-0.2190,-0.0380,1.2190,10.7940,22.4270,-39.5270,33.9900
0.0213,-0.2670,-0.0110,1.2560,8.6260,17.2820,-39.1300,33.8500
0.0216,-0.3170,-0.0010,1.2530,4.3360,15.6950,-43.0690,33.8900
0.0219,-0.3130,-0.0000,1.2850,1.1600,15.4810,-49.1300,33.9400
0.0222,-0.2400,0.0000,1.3100,-6.2290,17.0530,-51.6180,33.8500
0.0225,-0.2120,-0.0120,1.2800,-10.3660,16.0460,-51.8320,33.8000
0.0228,-0.2310,-0.0450,1.2210,-9.8320,20.9010,-53.0990,33.8500
0.0231,-0.2580,-0.0830,1.1980,-11.0230,20.4430,-55.2820,33.8000
0.0234,-0.2450,-0.0950,1.1790,-9.3590,20.0920,-57.3280,33.8900
0.0236,-0.1680,-0.1110,1.2150,-9.9390,25.3130,-56.2290,33.8500
0.0239,-0.1460,-0.1110,1.2400,-9.8630,26.6720,-51.6950,33.8000
0.0242,-0.1700,-0.1110,1.1940,-9.5270,26.2750,-48.2290,33.8500
0.0245,-0.2160,-0.1140,1.1880,-7.9240,19.7100,-46.3660,33.8500
0.0248,-0.2010,-0.1000,1.1390,-4.9160,16.3210,-45.8020,33.8900
0.0251,-0.1950,-0.0880,1.1670,-1.9850,12.7480,-45.2370,33.8500
0.0253,-0.2090,-0.0760,1.1910,-0.7940,10.9770,-44.9620,33.8000
0.0256,-0.1760,-0.0720,1.2310,-2.3820,13.9690,-44.5190,33.8500
0.0259,-0.1880,-0.1170,1.2190,-2.1830,12.4890,-44.8700,33.8500
0.0262,-0.2180,-0.0890,1.2020,-5.1600,11.7710,-43.2210,33.8000
0.0265,-0.2130,-0.0960,1.1490,-4.9010,7.9390,-45.9080,33.7500
0.0268,-0.1510,-0.0940,1.1520,-1.1910,8.8090,-45.9850,33.8000
0.0272,-0.1210,-0.0880,1.2210,-2.4890,9.9240,-41.6030,33.8900
0.0275,-0.1590,-0.0820,1.2010,-5.5270,12.5800,-39.3590,33.8500
0.0278,-0.2000,-0.0880,1.1600,-6.1370,14.4430,-41.5570,33.8000
0.0281,-0.2160,-0.0950,1.1700,-8.3050,17.2820,-44.6110,33.7500
0.0283,-0.1820,-0.0880,1.1500,-8.9310,19.7860,-46.2750,33.8900
0.0286,-0.1620,-0.0900,1.1980,-9.4500,19.0530,-45.0080,33.8900
0.0288,-0.1530,-0.0770,1.1700,-11.5730,20.2900,-43.0530,33.8500
0.0291,-0.1790,-0.1100,1.1350,-10.2440,21.7250,-42.7330,33.8900
0.0293,-0.1700,-0.1060,1.1300,-10.5800,25.0690,-42.4270,33.8500
0.0296,-0.2600,-0.1060,1.1320,-11.6490,18.7630,-43.1910,33.9400
0.0299,-0.2160,-0.1130,1.0870,-9.3740,15.5270,-46.6260,33.8900
0.0301,-0.1830,-0.1140,1.0980,-8.0610,15.6790,-46.3210,33.8500
0.0304,-0.1640,-0.1190,1.1160,-6.6410,11.6340,-45.0230,33.8000
0.0306,-0.1610,-0.1080,1.1530,-7.8780,10.4890,-43.7100,33.8900
0.0309,-0.1260,-0.1280,1.1360,-7.9240,9.9390,-41.4660,33.8500
0.0311,-0.1390,-0.1220,1.0790,-6.7630,13.0840,-39.2520,33.8900
0.0314,-0.1510,-0.1260,1.0730,-3.5110,13.9540,-40.0150,33.9400
0.0316,-0.1840,-0.1210,1.1550,-3.1300,13.7710,-40.7180,33.8900
0.0319,-0.1420,-0.0940,1.1400,-5.7560,13.7710,-41.8470,33.8900
0.0321,-0.1570,-0.1090,1.1260,-3.9080,18.9620,-43.1300,33.8500
0.0324,-0.1550,-0.1100,1.1320,-4.1370,21.7400,-44.7790,33.8000
0.0326,-0.1450,-0.1040,1.1320,-3.8020,26.5500,-45.2820,33.8500
0.0329,-0.1490,-0.1080,1.1730,-4.9770,22.2290,-44.3820,33.8500
0.0331,-0.1260,-0.1040,1.2190,-7.4200,22.9310,-41.7400,33.8900
0.0334,-0.1580,-0.0980,1.2060,-11.8780,22.7180,-39.2060,33.7500
0.0336,-0.1900,-0.1140,1.1430,-12.1830,22.4270,-38.2900,33.8900
0.0339,-0.2290,-0.1460,1.1290,-11.8320,22.0310,-38.9920,33.8000
0.0341,-0.2830,-0.1540,1.1230,-8.9620,21.9240,-42.3660,33.9400
0.0343,-0.2310,-0.1550,1.1230,-7.3590,24.3660,-46.1220,33.9900
0.0346,-0.1960,-0.1440,1.1790,-6.7180,27.2210,-46.3210,33.9400
0.0348,-0.2010,-0.1310,1.1650,-7.2060,25.5270,-45.4810,33.8000
0.0350,-0.1960,-0.1180,1.1700,-5.6640,22.7940,-44.2290,33.8000
0.0353,-0.2130,-0.1200,1.1680,-3.9240,17.8320,-42.7180,33.9400
0.0356,-0.1670,-0.0990,1.1930,-4.6110,16.2440,-41.8780,33.8000
0.0358,-0.1700,-0.1080,1.1780,-6.7020,16.3660,-39.3590,33.8500
0.0360,-0.2230,-0.1270,1.1530,-7.1150,14.8090,-39.3890,33.8500
0.0362,-0.2560,-0.1300,1.1350,-5.9540,15.1910,-42.9160,33.8900
0.0365,-0.1740,-0.1290,1.1330,-6.0610,22.6560,-45.7100,33.8500
0.0367,-0.1910,-0.1480,1.2140,-6.3970,21.0990,-46.8850,33.8900
0.0369,-0.1490,-0.1450,1.1550,-7.6030,24.8400,-46.0610,33.8900
0.0371,-0.1970,-0.1480,1.1540,-6.5800,24.5040,-44.7940,33.8500
0.0374,-0.2080,-0.1390,1.1720,-6.0610,20.4270,-44.0760,33.8900
0.0376,-0.1920,-0.1370,1.1840,-6.3660,18.5800,-43.5270,33.9400
0.0378,-0.2120,-0.1550,1.1530,-6.5500,18.2440,-42.2600,33.8000
0.0380,-0.2110,-0.1540,1.1280,-4.5800,16.0150,-42.5340,33.8900
0.0383,-0.2100,-0.1640,1.1510,-2.2440,14.4120,-42.2900,33.8500
0.0385,-0.1830,-0.1560,1.1680,-0.8700,13.6030,-40.8240,33.9900
0.0387,-0.1920,-0.1470,1.1960,0.3360,14.4270,-38.9010,33.8500
0.0390,-0.1930,-0.1360,1.2170,1.3280,13.2670,-38.0920,33.9400
0.0392,-0.1860,-0.1250,1.2080,2.6110,15.5110,-37.4660,33.8900
0.0394,-0.2080,-0.1130,1.2360,2.7790,15.6030,-37.2980,33.8500
0.0396,-0.2290,-0.1110,1.2200,2.9770,12.2600,-38.3970,33.8900
0.0399,-0.2000,-0.1140,1.2400,2.8700,12.1370,-40.0150,33.8900
0.0401,-0.1730,-0.1100,1.2520,1.4810,11.0230,-38.8850,33.8500
0.0403,-0.1840,-0.0930,1.2820,-0.5650,12.0310,-37.2210,33.8900
0.0405,-0.2190,-0.0950,1.2790,-3.0530,8.5800,-37.5270,33.7500
0.0407,-0.1900,-0.1110,1.2520,-4.6720,9.5110,-38.3510,33.9400
0.0409,-0.1730,-0.1260,1.2340,-3.5420,11.4960,-37.3280,33.8900
0.0411,-0.1860,-0.1330,1.2200,-1.7560,12.9620,-36.9160,33.9400
0.0413,-0.2300,-0.1340,1.2560,-0.7020,10.6410,-36.5190,33.8900
0.0415,-0.2010,-0.1280,1.2810,-0.2290,4.9770,-36.3820,33.8500
0.0417,-0.1730,-0.1250,1.2800,0.0150,2.6410,-34.3210,33.8500
0.0419,-0.1760,-0.1350,1.2520,1.8020,1.2370,-32.4580,33.8000
0.0421,-0.1810,-0.1360,1.2420,4.8400,0.6260,-31.0080,33.7500
0.0423,-0.2370,-0.1480,1.2520,7.5880,-1.3440,-32.5500,33.8500
0.0425,-0.2840,-0.1230,1.2620,9.9240,-4.1220,-36.3210,33.8000
0.0427,-0.2260,-0.1060,1.3090,9.4350,-10.0920,-38.9770,33.8500
0.0429,-0.1520,-0.0800,1.3460,6.3820,-10.2900,-37.8020,33.8900
0.0431,-0.1500,-0.0860,1.3440,2.6560,-9.3890,-35.8020,33.8000
0.0433,-0.1720,-0.0850,1.2920,0.4270,-10.5650,-34.9920,33.8500
0.0435,-0.1680,-0.0920,1.2600,0.5190,-11.3740,-35.3440,33.8000
0.0438,-0.1540,-0.1130,1.2840,2.5950,-10.9310,-37.9850,33.8500
0.0440,-0.1540,-0.1180,1.3000,-1.4050,-14.4430,-40.5500,33.8500
0.0442,-0.0770,-0.1550,1.2940,-4.7020,-13.6790,-42.7020,33.8500
0.0445,-0.0370,-0.1830,1.2300,-6.1530,-11.1760,-43.9690,33.8500
0.0447,0.0210,-0.2020,1.1880,-4.3510,1.3280,-41.8930,33.8000
0.0449,-0.0000,-0.2040,1.1880,-6.4730,2.0000,-37.4660,33.9400
0.0451,0.0050,-0.2120,1.1620,-4.6560,-1.1760,-32.3510,33.7500
0.0453,-0.0300,-0.1900,1.1610,-3.9540,-5.6640,-29.6950,33.8900
0.0455,-0.0420,-0.1610,1.1550,1.2980,-3.6340,-30.2140,33.8500
0.0457,-0.0560,-0.1550,1.1970,3.6640,-7.4350,-30.6560,33.8000
0.0459,-0.0200,-0.1410,1.1980,5.1600,-15.3130,-31.7250,33.8900
0.0462,0.1500,-0.1360,1.1290,-1.4200,25.2520,-46.1220,33.8500
0.0464,0.1530,-0.1260,1.1240,-0.6410,25.4810,-47.0530,33.8000
0.0466,0.1470,-0.1190,1.1340,0.1980,24.7180,-46.6870,33.8500
0.0468,0.1690,-0.1300,1.1140,0.9770,24.8400,-45.9080,33.8500
0.0489,0.1780,-0.1280,1.1050,2.3660,25.2210,-43.8020,33.9400
0.0611,0.1540,-0.1060,1.1620,2.2900,25.5880,-41.8470,33.8500
0.0735,0.0880,-0.0840,1.1740,1.0690,23.5880,-43.2980,33.8000
0.0805,0.1150,-0.0780,1.1920,0.1070,25.2210,-46.4430,33.8500
0.0927,0.1250,-0.0900,1.1880,-2.4270,27.5420,-48.2900,33.9400
0.0994,0.1250,-0.0990,1.1580,-4.0150,29.4500,-50.1980,33.8900
0.1117,0.1630,-0.0950,1.1520,-4.1370,31.1600,-49.1760,33.8500
0.1173,0.1600,-0.0960,1.1530,-3.6490,29.8320,-45.1300,33.9900
0.1307,0.1370,-0.0940,1.1560,-2.1530,25.5570,-43.4660,33.8900
0.1429,0.1320,-0.0940,1.1500,-0.5500,24.0920,-43.3440,33.8500
0.1496,0.1240,-0.0970,1.1540,0.0000,24.0000,-43.4350,33.8000
0.1620,0.0980,-0.0860,1.1520,-0.7480,25.3890,-45.5110,33.9400
0.1686,0.1020,-0.0970,1.1430,-1.5880,27.5730,-46.9770,33.8900
0.1811,0.0860,-0.0960,1.1250,-2.8400,26.4120,-48.2140,33.8500
0.1933,0.1120,-0.0930,1.1330,-3.5110,27.4350,-47.4810,33.8500
0.2001,0.1160,-0.0790,1.1250,-2.9010,26.2900,-46.0000,33.8000
0.2124,0.0800,-0.0860,1.1350,-1.4660,22.9470,-46.5800,33.9400
0.2191,0.0210,-0.0980,1.1460,-0.8700,18.9310,-48.3360,33.9400
0.2313,0.0270,-0.1210,1.1350,-0.3970,17.6180,-52.0760,33.8900
0.2434,0.0990,-0.1500,1.0930,0.7330,20.5040,-52.8400,33.8500
0.2506,0.1590,-0.1470,1.0470,2.9920,22.0760,-50.1680,33.8000
0.2625,0.1810,-0.1410,1.0430,7.7400,21.3440,-44.8850,33.9400
0.2702,0.1580,-0.1070,1.0970,13.2060,16.9920,-40.2440,33.8500
0.2819,0.1370,-0.0750,1.1560,16.9470,9.3280,-37.9690,33.8000
0.2939,0.1650,-0.0320,1.2000,17.8780,8.3050,-36.9310,33.8500
0.3011,0.1740,-0.0220,1.2360,16.7790,7.2370,-38.0460,33.8900
0.3131,0.1980,-0.0130,1.2400,11.6790,10.3360,-38.3510,33.8500
0.3201,0.1900,-0.0210,1.1930,7.4050,15.8630,-40.5040,33.9400
0.3323,0.2080,-0.0300,1.1800,3.0530,21.2370,-42.9160,33.8900
0.3392,0.2250,-0.0370,1.1530,-0.8240,24.9770,-43.8780,33.8500
0.3515,0.2460,-0.0510,1.1500,-3.6490,30.1220,-42.6110,33.8000
0.3633,0.1780,-0.0590,1.1430,-5.2370,29.8930,-41.9080,33.8900
0.3706,0.1490,-0.0800,1.0830,-3.7860,27.3740,-43.6640,33.9400
0.3824,0.1460,-0.1020,1.0800,-1.4500,25.6490,-44.3510,33.8900
0.3894,0.1200,-0.0990,1.0990,-0.2900,23.1910,-45.3130,33.7500
0.4015,0.1110,-0.1000,1.1130,-0.3970,22.8550,-46.4270,33.9400
0.4136,0.1150,-0.1010,1.1250,-0.6560,26.3360,-49.0990,33.8000
0.4206,0.1750,-0.1340,1.0880,-2.1980,31.2980,-49.6340,33.8500
0.4327,0.1500,-0.0960,1.1120,-6.5800,34.5950,-48.2600,33.8000
0.4394,0.1330,-0.1040,1.0850,-3.0990,36.1830,-45.7250,33.8500
0.4517,0.0900,-0.0870,1.1140,-1.0840,34.1370,-45.5730,33.9400
0.4639,0.0740,-0.0880,1.1440,-0.4430,32.1830,-47.1300,33.8900
0.4706,0.0880,-0.1000,1.1440,0.4430,30.4580,-49.5270,33.8500
0.4830,0.1310,-0.1090,1.1230,2.1070,31.5270,-50.9920,33.8500
0.4901,0.1440,-0.1060,1.1570,2.7480,31.6950,-49.3740,33.8900
0.5022,0.1320,-0.0770,1.1690,2.9770,30.3050,-46.4730,33.9400
0.5092,0.0980,-0.0670,1.2000,2.3510,29.2670,-44.2750,33.8900
0.5211,0.0810,-0.0570,1.2030,0.9770,29.4810,-42.9310,33.7500
0.5333,0.0420,-0.0620,1.1980,0.5800,27.3130,-44.2140,33.9400
0.5402,0.0460,-0.0880,1.1840,-0.2750,28.9770,-47.7710,33.9900
0.5525,0.0740,-0.0890,1.1620,-0.8400,30.1830,-49.7400,33.7500
0.5592,0.0870,-0.0950,1.1710,-0.5800,31.4810,-49.4200,33.8900
0.5717,0.0680,-0.0950,1.1520,1.2980,29.9390,-48.9010,33.9400
0.5838,0.0730,-0.1030,1.1440,3.4350,27.9540,-47.7250,33.9400
0.5907,0.0830,-0.0820,1.1590,6.6870,20.4270,-43.1600,33.8900
0.6030,0.1090,-0.0430,1.1880,10.6410,11.3590,-37.9850,33.9400
0.6100,0.1320,-0.0290,1.2340,13.3590,6.1980,-31.5420,33.8500
0.6221,0.1550,-0.0070,1.2480,11.9240,8.5950,-28.7790,33.8000
0.6291,0.1070,0.0020,1.2530,9.2370,10.2900,-29.2980,33.7500
0.6416,0.0760,-0.0060,1.2130,6.6410,15.2210,-33.5730,33.8900
0.6536,0.0660,0.0110,1.1980,6.3360,26.8240,-41.2520,33.8000
0.6612,0.0840,-0.0640,1.2710,-3.6180,23.9240,-49.6640,33.8500
0.6727,0.1440,-0.0670,1.2270,-8.9010,33.1450,-53.0690,33.8900
0.6796,0.1740,-0.0650,1.1850,-8.7480,36.9920,-52.9470,33.8500
0.6918,0.1730,-0.0670,1.1970,-8.6720,35.4810,-50.2440,33.9400
0.7039,0.1620,-0.0810,1.1610,-6.1980,31.3590,-47.6030,33.8500
0.7108,0.1520,-0.0800,1.1720,-2.8550,28.5650,-46.3820,33.8500
0.7230,0.1610,-0.0780,1.1860,-0.6720,27.3890,-44.7940,33.8900
0.7297,0.1500,-0.0710,1.1710,0.5950,25.8930,-43.4200,33.9400
0.7420,0.1300,-0.0670,1.1620,1.5110,25.9240,-43.4500,33.7500
0.7492,0.1350,-0.0660,1.1910,0.9770,26.9470,-43.3890,33.8900
0.7613,0.1390,-0.0700,1.1980,-0.1370,26.3970,-43.1300,33.9400
0.7735,0.1350,-0.0660,1.1940,-1.7560,25.7560,-42.0920,33.8900
0.7801,0.1250,-0.0600,1.1910,-3.0690,23.8470,-42.3210,33.8000
0.7924,0.1460,-0.0720,1.1810,-4.3050,26.1370,-42.5800,33.9400
0.7994,0.1250,-0.0800,1.1710,-4.5500,25.1150,-42.8550,33.8900
0.8114,0.1290,-0.0910,1.1520,-3.3280,25.1450,-42.9310,33.8500
0.8234,0.1590,-0.0890,1.1490,-1.0690,24.3050,-40.8700,33.7500
0.8305,0.1720,-0.0740,1.1460,1.0530,24.5040,-36.0310,33.8500
0.8427,0.1060,-0.0580,1.1480,5.5270,19.4810,-33.3740,33.8500
0.8493,0.0810,-0.0430,1.2130,8.3510,15.2670,-33.2670,33.8000
0.8615,0.0840,-0.0540,1.2670,7.5270,11.8780,-34.9920,33.8500
0.8738,0.0940,-0.0570,1.2590,4.5650,15.3440,-36.6110,33.8500
0.8810,0.0780,-0.0590,1.2310,1.5730,20.1680,-39.3280,33.8900
0.8930,0.0650,-0.0650,1.2260,-3.4200,27.6790,-44.2440,33.8500
0.9002,0.0760,-0.0840,1.1740,-6.7020,30.8090,-47.6950,33.8000
0.9122,0.1070,-0.0890,1.1710,-6.6110,31.6950,-48.3510,33.8900
0.9190,0.1380,-0.0790,1.1770,-6.0000,31.5110,-45.3590,33.8500
0.9312,0.0970,-0.0680,1.1600,-3.3440,26.2440,-42.1680,33.8900
0.9434,0.0730,-0.0640,1.1230,1.1600,23.5570,-42.0920,33.8500
0.9503,0.0760,-0.0670,1.1700,5.0530,17.5270,-42.5040,33.8900
0.9622,0.1220,-0.0500,1.1880,5.2820,16.3050,-40.5800,33.9400
0.9693,0.0970,-0.0620,1.1880,5.2980,16.0920,-38.9470,33.9400
0.9819,0.0770,-0.0590,1.1690,5.2060,14.9620,-40.0310,33.8000
0.9938,0.0940,-0.0600,1.1610,3.9240,18.3050,-41.5730,33.8500
1.0011,0.1050,-0.0530,1.1750,2.1980,18.9310,-41.4350,33.8500
1.0130,0.0650,-0.0160,1.2050,-0.3820,17.6180,-40.9470,33.8900
1.0197,0.0890,-0.0610,1.1630,-0.3820,20.3970,-41.9540,33.8500
1.0320,0.0580,-0.0700,1.1430,-1.2060,19.1600,-43.9690,33.9900
1.0386,0.0600,-0.0740,1.1550,-2.3210,19.0080,-47.2980,33.8500
1.0510,0.1200,-0.1080,1.0870,1.4810,23.2520,-47.9690,33.8500
1.0632,0.1280,-0.0950,1.0870,4.0000,23.0380,-45.1300,33.8900
1.0698,0.1100,-0.0850,1.1340,3.9240,22.2290,-42.3050,33.8500
1.0822,0.1500,-0.0220,1.0910,6.6260,29.1450,-39.2370,33.9900
1.0892,0.0960,-0.1040,1.1340,6.1370,21.4050,-39.2820,33.9400
1.1015,0.1130,-0.1120,1.0840,8.1370,22.4580,-40.0920,33.8500
1.1138,0.0910,-0.0870,1.0970,11.9240,25.7100,-40.7790,33.8900
1.1207,0.0850,-0.0620,1.1760,11.3890,23.4660,-42.8090,33.8500
1.1328,0.1150,-0.0330,1.2060,8.9160,21.9390,-42.7330,33.8900
1.1397,0.1170,0.0040,1.2050,8.0150,22.0610,-40.0760,33.8900
1.1521,0.0530,0.0130,1.2030,5.5110,22.1220,-40.7790,33.8500
1.1590,0.0380,0.0280,1.1950,4.3660,24.1980,-42.0760,33.8900
1.1713,0.0440,0.0260,1.2330,0.0310,25.0690,-44.6110,33.8500
1.1839,0.0810,0.0230,1.2200,-3.0840,26.8090,-45.4660,33.9400
1.1907,0.0600,0.0150,1.2060,-6.1830,28.9620,-46.5650,33.8900
1.2029,0.0370,-0.0050,1.1940,-9.0230,29.4500,-48.3660,33.8500
1.2099,0.0420,-0.0250,1.1790,-11.1600,30.4430,-49.5270,33.8900
1.2219,0.0260,-0.0490,1.1860,-12.7940,27.9690,-51.8780,33.9400
1.2339,0.0580,-0.0710,1.1240,-12.9920,31.8630,-53.5420,33.8500
1.2409,0.0840,-0.0760,1.1170,-10.6110,32.5950,-52.0310,33.8900
1.2530,0.0580,-0.0610,1.1300,-9.3590,31.8020,-48.2900,33.8500
1.2599,0.0130,-0.0450,1.1220,-6.8550,28.7020,-46.9920,33.8000
1.2719,-0.0130,-0.0640,1.1060,-2.6110,24.1530,-48.7330,33.8900
1.2839,0.0270,-0.0730,1.1370,-0.1680,22.3660,-51.0990,33.9400
1.2907,0.0970,-0.0640,1.1500,0.3510,22.2900,-49.8170,33.8900
1.3031,0.0930,-0.0700,1.1510,0.9010,22.7790,-47.4500,33.8500
1.3100,0.0800,-0.0820,1.1250,0.8850,24.2600,-46.1220,33.8900
1.3221,0.0790,-0.0800,1.1090,2.0460,24.9010,-44.3820,33.8000
1.3292,0.1000,-0.0730,1.1030,1.2060,24.6560,-41.4200,33.8500
1.3415,0.0760,-0.0360,1.1320,1.6180,23.0380,-38.9620,33.8900
1.3537,0.0650,-0.0370,1.1240,4.9620,21.7100,-38.4270,33.8500
1.3604,0.0640,-0.0500,1.1500,5.9540,22.0150,-38.9620,33.9400
1.3727,0.0400,-0.0400,1.1570,5.3740,20.2140,-41.9540,33.8900
1.3796,0.0110,-0.0330,1.2130,3.0840,22.4890,-45.9540,33.8500
1.3920,0.0130,-0.0420,1.1700,1.4050,26.5950,-50.3970,33.8000
1.3992,0.0610,-0.0660,1.1450,1.8930,30.4120,-52.7020,33.9400
1.4111,0.0870,-0.0620,1.1730,-0.6720,36.6560,-51.5110,33.9400
1.4231,0.0450,-0.0560,1.1510,-1.6490,34.1980,-49.6950,33.8900
1.4301,-0.0160,-0.0710,1.1470,0.2750,35.1910,-52.0760,33.8500
1.4422,0.0040,-0.0850,1.1380,2.3210,31.7250,-55.5110,33.8900
1.4494,0.0680,-0.0770,1.1610,0.8090,27.1760,-55.6490,33.8900
1.4613,0.1230,-0.0800,1.1590,5.1150,28.0760,-52.0000,33.8500
1.4737,0.0950,-0.0890,1.1280,8.1070,26.6260,-48.3210,33.8900
1.4807,0.0560,-0.0740,1.1110,11.4810,24.6260,-46.0460,33.8500
1.4927,0.0720,-0.0440,1.1530,15.3740,24.0760,-43.4660,33.9400
1.4999,0.0850,-0.0180,1.2130,14.8400,20.4270,-40.0920,33.9900
1.5117,0.0350,0.0120,1.2400,12.3660,20.5190,-38.2140,33.8500
1.5239,-0.0100,-0.0010,1.2100,10.1070,19.1150,-42.0460,33.8900
1.5308,-0.0100,0.0010,1.2140,7.8630,22.9470,-47.1150,33.8000
1.5430,0.0400,-0.0130,1.2050,2.8240,30.9160,-51.2210,33.9400
1.5501,0.0190,0.0080,1.1820,-1.3890,31.1450,-54.3970,33.8000
1.5621,0.0670,-0.0070,1.1470,-0.5500,34.1680,-55.6340,33.8500
1.5689,0.0500,-0.0310,1.1570,0.2440,32.7180,-55.2210,33.8900
1.5813,0.0830,-0.0290,1.1670,-0.7940,30.7480,-54.0610,33.8900
1.5934,0.0710,-0.0170,1.1700,-0.6260,27.8930,-51.3890,33.9400
1.6002,0.0240,-0.0030,1.1320,1.9080,24.6560,-49.6790,33.8900
1.6123,-0.0030,-0.0170,1.1240,4.9310,21.9390,-50.1070,33.8500
1.6194,0.0030,-0.0190,1.1220,7.3890,23.1600,-52.2900,33.8500
1.6318,0.0170,-0.0010,1.1940,7.7710,21.0530,-52.3660,33.9900
1.6439,0.0530,-0.0240,1.2190,6.8550,22.0000,-51.4660,33.9400
1.6507,0.0540,-0.0300,1.1890,5.1600,23.8930,-50.7330,33.8900
1.6628,0.0210,-0.0320,1.1640,2.6720,23.7860,-52.0310,33.8900
1.6699,0.0190,-0.0580,1.1300,2.0460,29.6950,-54.4430,33.8500
1.6822,0.0730,-0.0580,1.0680,4.6110,34.0460,-53.1760,33.8000
1.6891,-0.0100,-0.0160,1.1230,5.4350,25.7710,-50.1980,33.8500
1.7013,-0.0190,0.0070,1.1240,8.6410,19.4050,-51.0380,33.8900
1.7133,0.0340,-0.0030,1.1470,12.5800,17.3440,-51.2670,33.8900
1.7203,0.0240,0.0050,1.1690,13.9850,12.5340,-50.3660,33.8500
1.7327,0.0790,0.0160,1.1860,14.0920,11.0990,-49.3740,33.8900
1.7393,0.0940,0.0100,1.1710,15.2210,8.6410,-46.3970,33.9400
1.7519,0.0320,0.0490,1.1960,12.4890,6.6260,-43.4960,33.8500
1.7592,0.0750,0.0440,1.1770,16.5500,12.7180,-40.4270,33.8900
1.7712,0.0700,0.0740,1.1960,15.4660,8.2140,-36.1980,33.9400
1.7833,0.0800,0.0920,1.2270,16.7480,5.4350,-33.0690,33.8900
1.7904,0.0510,0.1100,1.2920,14.5800,3.1450,-30.9620,33.8900
1.8027,0.0110,0.1090,1.2920,11.4050,-1.7400,-33.0530,33.8500
1.8099,0.0740,0.0820,1.2380,9.4050,2.3970,-37.8780,33.8000
1.8223,0.0780,0.0970,1.2640,1.7400,7.8020,-40.3510,33.8500
1.8293,0.0590,0.0840,1.2720,-8.1980,15.8630,-42.0000,33.9400
1.8415,0.0270,0.0840,1.2160,-12.5650,20.1370,-45.4810,33.8900
1.8536,0.0700,0.0630,1.1930,-14.9920,24.0150,-48.4120,33.9400
1.8603,0.0940,0.0680,1.1700,-15.5570,26.0460,-47.1300,33.8900
1.8726,0.0480,0.0690,1.1800,-13.1450,18.0760,-46.4270,33.9400
1.8795,0.0180,0.0570,1.2020,-12.6410,14.6870,-47.8780,33.8500
1.8917,0.0540,0.0390,1.1660,-10.1070,11.4200,-49.4500,33.8000
1.9036,0.0630,-0.0030,1.1490,-8.4270,14.0150,-49.5420,33.9400
1.9106,0.0470,-0.0230,1.1150,-7.3590,12.5800,-51.2980,33.8500
1.9226,0.0480,0.0060,1.1430,-10.5040,14.4270,-50.5340,33.8900
1.9295,0.0820,-0.0140,1.1290,-5.7710,19.8320,-49.5110,33.8500
1.9418,0.1090,0.0310,1.1620,-4.3510,13.0840,-44.9310,33.8000
1.9538,0.1480,0.0420,1.1340,-3.2520,14.0920,-39.0990,33.8500
1.9608,0.1110,0.0420,1.1660,-1.0530,11.8780,-35.0990,33.8500
1.9731,0.0670,0.0750,1.2080,-3.6790,7.6640,-33.7400,33.8900
1.9800,0.0990,0.0670,1.1640,-3.4350,10.3660,-34.1980,33.8500
1.9925,0.0400,0.0470,1.1500,-3.3440,12.1980,-35.6030,33.8000
1.9997,0.0330,0.0240,1.1390,-4.3660,14.6410,-40.7180,33.9400
2.0116,-0.0140,-0.0820,1.1890,-10.2290,18.5950,-46.9620,33.8500
2.0237,0.1040,0.0520,1.2440,-11.3890,17.4200,-49.1300,33.8900
2.0305,0.1280,0.0510,1.2410,-14.7790,20.1370,-47.7860,33.8500
2.0428,0.1750,0.0450,1.1800,-16.3660,25.6340,-44.3360,33.9400
2.0497,0.1010,0.0110,1.1190,-15.3130,27.4960,-43.0080,33.8900
2.0617,0.0750,0.0070,1.0980,-12.8240,25.3890,-44.0000,33.9400
2.0737,0.1220,0.0130,1.1560,-11.2980,24.1530,-42.4120,33.8900
2.0809,0.1460,-0.0010,1.1320,-7.3890,22.9620,-39.8470,33.8900
2.0926,0.1230,-0.0120,1.1330,-4.0760,23.2980,-38.7940,33.8500
2.0999,0.1250,-0.0190,1.1220,-0.8240,27.9690,-40.5040,33.8900
2.1120,0.1310,-0.0120,1.1300,0.0000,32.6410,-41.1760,33.8500
2.1240,0.1130,0.0220,1.1770,-1.8170,37.8630,-40.6720,33.8900
2.1308,0.0520,0.0420,1.2110,-5.0690,32.0150,-40.9010,33.8500
2.1432,0.0530,-0.0050,1.1340,-9.3890,25.1600,-42.0000,33.9400
2.1502,0.0590,-0.0180,1.1360,-7.9540,10.0000,-40.9770,33.8900
2.1620,0.1780,-0.0650,1.1330,-6.3360,23.3280,-40.0310,33.9400
2.1689,0.0760,-0.0010,1.1700,-14.8850,25.1150,-39.5110,33.8500
2.1812,0.1170,-0.0160,1.1130,-15.6030,35.7100,-39.5270,33.8900
2.1931,0.0570,-0.0170,1.0960,-12.3970,38.3510,-38.5190,33.8500
2.2001,0.0250,0.0120,1.1710,-8.1370,36.3210,-38.7180,33.8900
2.2123,0.1050,0.0120,1.1980,3.5420,48.0760,-39.5880,33.8500
2.2193,0.0820,0.0150,1.2120,2.4120,65.4660,-41.9390,33.9400
2.2313,-0.0290,0.0300,1.1430,5.9850,59.4960,-45.4050,33.9900
2.2435,0.0110,-0.0010,1.1700,-0.1530,38.9160,-45.9240,33.9400
2.2506,0.1170,0.0070,1.2100,1.8170,51.8470,-44.9160,33.8900
2.2627,0.0470,0.0130,1.2440,0.0920,58.9920,-42.9160,33.8500
2.2697,-0.0360,-0.0370,1.2120,-7.8780,52.8240,-45.9540,33.8500
2.2816,0.0070,-0.1100,1.1250,-13.9240,59.5270,-50.6410,33.8900
2.2874,-0.0290,-0.0870,1.1370,-12.5650,65.7710,-53.8630,33.9400
2.3004,-0.0320,-0.0770,1.1460,-9.0690,62.4890,-52.6870,33.8500
2.3127,-0.0130,-0.0680,1.1820,-1.8780,55.6490,-49.0690,33.8000
2.3193,-0.0180,-0.0470,1.2130,1.7100,47.3440,-44.0150,33.8500
2.3315,-0.0540,-0.0420,1.1960,4.2290,39.3440,-41.3890,33.8900
2.3437,-0.0670,-0.0310,1.1920,7.2370,35.6030,-42.2290,33.8900
2.3505,-0.1000,-0.0090,1.2070,8.0150,31.7560,-42.8090,33.8500
2.3627,-0.1020,-0.0010,1.2400,7.1760,29.1150,-45.2980,33.8900
2.3693,-0.0660,0.0050,1.2400,2.1370,30.1680,-46.4580,33.9400
2.3817,-0.0410,0.0140,1.2450,-2.6870,28.9920,-46.3970,33.8500
2.3887,-0.0120,0.0260,1.2320,-6.9770,33.5420,-46.2600,33.8500
2.4008,-0.0520,0.0270,1.2280,-10.3660,34.9010,-46.5800,33.9400
2.4130,-0.1100,0.0150,1.2230,-15.5880,32.0920,-48.6410,33.8900
2.4198,-0.0700,-0.0050,1.1840,-15.8630,33.3740,-50.9620,33.9900
2.4318,-0.0330,-0.0390,1.1490,-15.6490,32.3820,-50.8090,33.9400
2.4439,-0.0460,-0.0580,1.1080,-14.7630,31.2670,-49.7860,33.8900
2.4503,-0.0650,-0.0660,1.0730,-11.0080,25.7710,-51.0380,33.9400
2.4624,0.0110,-0.0550,1.0800,-5.3440,27.1300,-49.6790,33.8900
2.4694,0.0280,-0.0350,1.1420,-1.3890,27.4350,-46.6110,33.8900
2.4815,0.0350,-0.0300,1.1490,-2.3660,29.5880,-43.2370,33.9400
2.4936,-0.0300,-0.0240,1.1720,-2.2440,29.0840,-41.4960,33.8900
2.5007,-0.0310,-0.0330,1.1500,-1.8470,28.5190,-43.2060,33.9400
2.5123,0.0080,-0.0490,1.1270,-1.7400,33.5420,-43.9690,33.9400
2.5194,-0.0530,-0.0730,1.1230,-0.7480,33.9080,-46.0920,33.8900
2.5316,-0.0120,-0.0760,1.0910,-0.1830,38.8400,-48.0610,33.9400
2.5434,0.0120,-0.0310,1.1560,-0.6260,37.6790,-46.1980,33.8000
2.5506,0.0190,-0.0300,1.1550,4.4270,42.9160,-42.2140,33.8900
2.5627,-0.0110,-0.0060,1.2030,4.9770,38.6410,-38.4730,33.9400
2.5696,-0.0320,0.0020,1.1930,6.7180,34.1370,-34.0460,33.8900
2.5818,-0.0690,-0.0290,1.2310,9.8930,30.1370,-34.5190,33.9400
2.5939,-0.1120,-0.0230,1.2410,8.5950,33.1300,-38.5800,33.9900
2.6007,-0.1070,0.0120,1.2870,6.6260,34.7480,-43.4660,33.9900
2.6129,-0.1670,0.0880,1.4300,-6.6260,31.8630,-45.4500,33.9400
2.6198,-0.0480,0.0750,1.3980,-4.0000,63.5420,-46.1530,33.9900
2.6319,-0.0910,0.0830,1.3730,-21.8780,68.1680,-43.8780,33.8500
2.6438,-0.1330,0.0480,1.2870,-24.3210,66.3360,-42.8700,33.9400
2.6508,-0.1800,0.0190,1.3130,-17.4500,62.4430,-44.4580,33.8900
2.6629,-0.2130,0.0060,1.3100,-12.9010,54.5650,-46.1220,33.8500
2.6700,-0.1840,0.0000,1.3050,-9.8320,42.7020,-48.5650,33.8900
2.6818,-0.1620,-0.0170,1.3160,-8.7480,36.5190,-48.0460,33.8900
2.6939,-0.1840,-0.0150,1.3020,-9.8170,31.9240,-46.9470,33.9400
2.7009,-0.2350,-0.0390,1.2760,-9.7860,29.7860,-48.9160,33.8900
2.7126,-0.2100,-0.0490,1.2680,-10.3660,27.6030,-51.1910,33.9400
2.7198,-0.1660,-0.0620,1.2650,-12.6110,28.9920,-50.4580,33.9400
2.7316,-0.1760,-0.0640,1.2400,-15.2520,28.7630,-48.7480,33.8900
2.7434,-0.2260,-0.0660,1.2020,-14.7630,23.3890,-49.4810,33.8500
2.7502,-0.1920,-0.0840,1.1960,-11.5730,21.2210,-50.9160,33.8900
2.7620,-0.1370,-0.0860,1.2230,-9.8320,21.9240,-49.0230,33.9400
2.7679,-0.1230,-0.0760,1.1890,-7.7250,20.4120,-45.9390,33.8500
2.7811,-0.1760,-0.0630,1.1790,-4.1370,14.9920,-43.5270,33.8900
2.7928,-0.2270,-0.0610,1.1880,-0.0920,7.7250,-44.2600,33.8500
2.7995,-0.1980,-0.0600,1.1730,3.1910,6.5650,-47.2060,33.8900
2.8118,-0.1640,-0.0630,1.1830,2.9770,5.2210,-47.7250,33.8900
2.8191,-0.1220,-0.0580,1.1650,0.5500,6.7630,-46.8400,33.8500
2.8311,-0.1290,-0.0530,1.1690,-1.8020,9.0380,-46.0150,33.8900
2.8432,-0.1520,-0.0570,1.1470,-2.6260,9.0230,-45.9850,33.8500
2.8503,-0.1400,-0.0520,1.1100,-1.7400,7.9850,-48.0150,33.8500
2.8622,-0.0930,-0.0650,1.1540,-1.6340,10.2140,-48.0310,33.9900
2.8691,-0.0870,-0.0590,1.1410,-1.4960,9.7710,-46.3360,33.9400
2.8811,-0.0900,-0.0680,1.1040,1.5570,7.9690,-46.3660,33.8900
2.8933,-0.0600,-0.0630,1.1160,3.6030,8.9920,-45.2520,33.8900
2.9006,-0.0650,-0.0540,1.1340,4.8850,9.8170,-44.0610,33.8500
2.9126,-0.0470,-0.0430,1.1420,4.3970,13.7100,-42.0760,33.8900
2.9196,-0.0830,-0.0300,1.1560,4.4580,14.6560,-40.8550,33.8500
2.9318,-0.1080,-0.0330,1.1420,4.9470,14.6260,-41.7100,33.8900
2.9439,-0.1240,-0.0350,1.1490,5.2980,15.6640,-43.5270,33.8000
2.9508,-0.0830,-0.0220,1.1710,3.6790,16.2750,-44.7180,33.9400
2.9628,-0.0650,-0.0080,1.1870,1.3130,18.0610,-43.8780,33.8900
2.9696,-0.0850,-0.0160,1.1710,0.0920,17.7860,-44.8240,33.8500
2.9821,-0.0840,-0.0290,1.1440,-0.1980,21.4810,-47.5880,33.7500
2.9940,-0.0440,-0.0280,1.1630,-0.6870,24.2290,-49.4660,33.8900
3.0008,0.0150,-0.0310,1.1690,-2.2750,27.5270,-48.8090,33.9400
3.0129,0.0050,-0.0490,1.1250,-1.4960,27.9390,-45.3280,33.8900
3.0199,-0.0190,-0.0400,1.1060,1.7100,27.4350,-43.3890,33.8900
3.0321,-0.0700,-0.0420,1.1390,4.1980,27.5570,-41.8320,33.8500
3.0439,-0.0920,-0.0420,1.1600,5.6950,26.3050,-40.1070,33.8900
3.0509,-0.1320,-0.0090,1.1720,7.0080,25.4960,-40.1220,33.8500
3.0629,-0.1310,-0.0060,1.2040,7.2060,22.8240,-40.3050,33.9900
3.0702,-0.1430,0.0250,1.1930,6.8240,21.8170,-40.5040,33.8900
3.0823,-0.1300,0.0420,1.2360,4.2900,21.8470,-41.2980,33.9400
3.0889,-0.0990,0.0380,1.2790,-1.1600,22.2900,-41.8630,33.9900
3.1013,-0.0890,0.0320,1.2390,-6.1980,24.9620,-42.2900,33.8500
3.1133,-0.1190,0.0080,1.2100,-10.4890,24.8550,-43.6490,33.8000
3.1203,-0.1000,-0.0150,1.1690,-11.5880,28.0460,-45.2060,33.8000
3.1321,-0.0800,-0.0290,1.1490,-11.3440,28.3820,-45.5880,33.9400
3.1381,-0.0690,-0.0500,1.1400,-11.0990,28.2290,-43.3740,33.8900
3.1509,-0.0700,-0.0660,1.1130,-9.4810,28.5500,-41.6340,33.9400
3.1628,-0.1010,-0.0630,1.0870,-6.4580,31.5420,-39.9850,33.9400
3.1696,-0.1060,-0.0430,1.1230,-4.1070,33.0080,-37.7400,33.8500
3.1816,-0.1360,-0.0120,1.1620,-3.0230,29.7250,-35.6340,33.9400
3.1936,-0.1570,-0.0120,1.1660,-1.7710,25.5570,-33.7560,33.8900
3.2006,-0.1670,-0.0120,1.1750,-1.6180,23.9540,-35.0990,33.8900
3.2127,-0.1600,-0.0270,1.1960,-2.5650,25.3280,-35.8630,33.9400
3.2200,-0.1590,-0.0030,1.1680,-4.1370,21.6180,-36.5650,33.8900
3.2315,-0.1770,-0.0180,1.1550,-3.1450,21.3740,-39.0840,33.9400
3.2434,-0.1860,-0.0100,1.1700,-0.6260,23.1300,-42.4580,33.8900
3.2503,-0.1920,0.0030,1.1960,-2.7180,21.8930,-46.5650,33.8000
3.2624,-0.1550,-0.0010,1.2300,-4.2140,22.9920,-48.7630,33.9400
3.2692,-0.1510,0.0050,1.2200,-8.5040,21.6490,-47.7100,33.8000
3.2815,-0.1400,-0.0160,1.1700,-12.9010,17.1760,-47.8630,33.9400
3.2934,-0.1140,-0.0410,1.1410,-12.2140,19.8020,-46.8240,33.9400
3.3002,-0.1210,-0.0430,1.1780,-13.4660,15.3890,-43.1910,33.9400
3.3119,-0.1240,-0.0290,1.1630,-14.0760,15.2980,-40.6870,33.9400
3.3239,-0.1570,-0.0430,1.1480,-10.1980,13.1600,-40.1370,33.8900
3.3309,-0.1470,-0.0460,1.1330,-6.3210,13.8780,-41.9390,33.8900
3.3428,-0.1210,-0.0190,1.1600,-3.1600,14.2140,-42.4730,33.9400
3.3496,-0.0960,-0.0170,1.1840,-1.8470,13.7560,-43.4200,33.8900
3.3618,-0.0900,-0.0220,1.1890,-2.3970,13.8170,-44.5340,33.9400
3.3737,-0.0780,-0.0400,1.1700,-2.4580,14.1220,-45.5570,33.8900
3.3805,-0.0680,-0.0420,1.1790,-4.9010,18.1220,-46.9920,33.8900
3.3924,-0.0520,-0.0570,1.1630,-7.9540,22.3050,-47.7100,33.8500
3.3991,-0.0450,-0.0600,1.1040,-7.3740,24.9470,-46.8240,33.8900
3.4114,-0.0400,-0.0600,1.1030,-3.9080,27.9240,-44.9010,33.8500
3.4235,-0.0640,-0.0450,1.1230,-0.8240,26.6870,-42.8550,33.9400
3.4301,-0.0820,-0.0530,1.1350,2.5950,24.4120,-41.5730,33.8500
3.4424,-0.1030,-0.0450,1.1570,5.0840,24.1680,-40.5040,33.8500
3.4494,-0.1130,-0.0290,1.2160,4.6560,20.9770,-38.1370,33.8900
3.4618,-0.1690,-0.0280,1.2040,1.0690,19.4810,-38.0000,33.8900
3.4733,-0.1710,-0.0250,1.1410,2.5800,17.2980,-39.4810,33.8500
3.4803,-0.1630,-0.0250,1.1570,4.5190,18.7940,-40.3510,33.8900
3.4924,-0.1470,0.0100,1.2420,2.3050,20.6720,-40.6110,34.0400
3.4996,-0.1550,0.0330,1.2890,-3.1150,20.7480,-40.7480,33.8900
3.5117,-0.1620,0.0230,1.2620,-7.6180,22.5040,-41.0990,33.8000
3.5236,-0.1740,0.0100,1.2170,-10.2750,23.2060,-43.4810,33.9400
3.5303,-0.1690,-0.0100,1.1990,-12.3660,24.8850,-47.1600,33.8900
3.5425,-0.1600,-0.0360,1.1660,-13.9240,24.7790,-49.1910,33.8500
3.5494,-0.1490,-0.0410,1.1570,-13.8170,25.4050,-48.9770,33.9400
3.5612,-0.1590,-0.0660,1.1700,-13.6640,23.1150,-48.4120,33.9400
3.5732,-0.1350,-0.0810,1.1430,-13.9690,22.8240,-46.9770,33.8500
3.5799,-0.1390,-0.0940,1.0820,-12.3210,21.6640,-45.0080,33.8900
3.5921,-0.1510,-0.1010,1.0670,-6.9160,19.7560,-43.9690,33.8900
3.6038,-0.1340,-0.0970,1.0990,-3.8930,19.9080,-43.3280,33.8500
3.6109,-0.1150,-0.0890,1.1050,-1.9690,19.9240,-41.5110,33.8900
3.6226,-0.1340,-0.0920,1.1040,-0.0610,18.6260,-40.5500,33.8500
3.6294,-0.1410,-0.0780,1.1030,2.3360,18.1830,-41.5420,33.8900
3.6417,-0.1350,-0.0640,1.1050,4.6870,16.5950,-42.2140,33.8900
3.6539,-0.0910,-0.0510,1.1290,7.4960,16.4430,-42.0760,33.8500
3.6610,-0.0890,-0.0320,1.1740,7.6490,16.1370,-40.2440,33.8900
3.6730,-0.1180,-0.0140,1.1720,5.5270,15.1450,-39.4810,33.8500
3.6797,-0.1350,-0.0040,1.1680,5.3590,11.5570,-40.6560,33.9400
3.6920,-0.1250,-0.0040,1.1730,6.5800,14.0760,-41.6790,33.8500
3.7038,-0.0800,-0.0070,1.2080,2.6260,11.5880,-40.8400,33.8500
3.7110,-0.0910,-0.0100,1.1840,-0.3970,14.0150,-40.1680,33.9900
3.7230,-0.1160,-0.0230,1.1550,-2.1070,15.8630,-41.6790,33.8000
3.7296,-0.1230,-0.0130,1.1760,-2.6560,18.1680,-44.4430,33.8500
3.7417,-0.0540,-0.0410,1.1740,-2.0310,16.6560,-44.1530,33.8900
3.7539,-0.0100,-0.0650,1.1510,-4.3820,15.8780,-42.1980,33.8500
3.7611,-0.0300,-0.0580,1.1520,-7.3890,12.3820,-39.8930,33.9400
3.7727,-0.0520,-0.0640,1.1030,-2.4730,14.9620,-38.9620,33.8900
3.7794,-0.0710,-0.0610,1.1360,0.6720,16.1530,-38.2750,33.8500
3.7916,-0.0640,-0.0160,1.2150,-1.1150,13.6030,-36.3050,33.8900
3.8036,-0.0830,-0.0160,1.2090,-0.5800,18.7020,-35.2210,33.9400
3.8105,-0.1420,-0.0270,1.1760,-0.2600,18.3510,-37.5420,33.8500
3.8224,-0.1840,-0.0510,1.1440,0.0460,18.6560,-42.5800,33.8900
3.8293,-0.1630,-0.0660,1.1320,-0.2140,22.0610,-46.6870,33.8500
3.8415,-0.1170,-0.0640,1.1340,-0.3510,26.0150,-48.1370,33.8900
3.8533,-0.1030,-0.0680,1.1360,-1.7400,27.3440,-47.2210,33.8000
3.8602,-0.0900,-0.0720,1.1000,-1.4660,27.9690,-44.7330,33.9400
3.8724,-0.1040,-0.0760,1.0740,1.6490,28.1370,-42.8550,33.8900
3.8789,-0.1390,-0.0700,1.0960,4.7790,26.3510,-42.8850,33.9400
3.8916,-0.1360,-0.0520,1.1090,7.0380,25.3740,-44.3210,33.9400
3.9034,-0.1090,-0.0560,1.1530,7.3590,27.2670,-45.4810,33.8000
3.9108,-0.1190,-0.0450,1.1630,6.2140,27.2060,-46.3660,33.8500
3.9225,-0.1140,-0.0410,1.1490,4.0760,24.5800,-47.1150,33.8900
3.9293,-0.1150,-0.0460,1.1270,4.9010,25.1760,-46.9770,33.8500
3.9415,-0.1060,-0.0320,1.1620,5.4050,24.6870,-46.1980,33.9400
3.9536,-0.1070,-0.0050,1.2170,-0.5340,20.7630,-43.5420,33.8900
3.9604,-0.1090,-0.0160,1.1920,-2.1220,23.8320,-41.3130,33.9400
3.9725,-0.1700,-0.0040,1.1770,-4.5340,33.0530,-42.6110,33.8900
3.9792,-0.2190,-0.0100,1.2180,-10.6720,28.5040,-46.0760,33.8900
3.9911,-0.1850,-0.0130,1.2240,-8.3660,28.8850,-49.2980,33.8500
