Time,AX,AY,AZ,GX,GY,GZ,T
0.0000,0.1600,-0.0440,1.1880,-14.3820,23.7100,-41.4050,34.2200
0.0004,0.1680,-0.0300,1.2460,-15.6340,25.6180,-40.0760,34.2700
0.0009,0.1710,-0.0420,1.2760,-20.0150,29.9540,-38.5650,34.1300
0.0013,0.1230,-0.0410,1.2030,-21.8470,31.1300,-39.4500,34.3700
0.0017,0.1020,-0.0780,1.1910,-21.7710,39.1300,-42.4890,34.1800
0.0021,0.1030,-0.0890,1.1820,-24.2140,42.6560,-44.7630,34.2200
0.0026,0.1460,-0.1340,1.1700,-25.2370,57.3440,-43.2210,34.1800
0.0033,0.0410,-0.0870,1.1550,-27.6640,44.0310,-44.1530,34.2200
0.0037,0.0950,-0.1200,1.0900,-25.2670,43.9850,-43.8320,34.3200
0.0043,0.1210,-0.0960,1.1260,-26.7330,50.5040,-40.7480,34.2200
0.0047,0.0640,-0.1420,1.1400,-20.7020,36.5040,-39.6950,34.2200
0.0052,0.1590,-0.1450,1.0960,-20.5800,43.2370,-37.7400,34.1800
0.0056,0.0440,-0.1240,1.1670,-14.9160,33.4660,-36.7940,34.2700
0.0060,0.1230,-0.1210,1.1290,-13.1150,34.2750,-33.2520,34.2200
0.0064,0.0520,-0.1220,1.2170,-13.3890,33.7560,-32.8550,34.2700
0.0069,0.0520,-0.1120,1.1710,-14.9920,39.2520,-32.8700,34.3200
0.0073,0.0160,-0.1120,1.1630,-15.2670,33.8020,-35.6640,34.2700
0.0077,0.0190,-0.1270,1.1950,-20.0000,42.5800,-37.2980,34.2700
0.0080,0.0620,-0.1480,1.1920,-21.0080,41.0530,-38.6720,34.2200
0.0084,0.0220,-0.1340,1.1420,-23.4050,33.6340,-38.8850,34.1800
0.0088,0.1010,-0.1460,1.0990,-24.8090,45.1910,-39.0690,34.3200
0.0092,-0.0010,-0.1630,1.1070,-21.8020,35.0380,-40.6560,34.2200
0.0096,0.0520,-0.1560,1.1120,-21.9080,35.8930,-41.3890,34.3200
0.0100,0.0860,-0.1420,1.1810,-23.6340,42.8700,-41.1760,34.2200
0.0104,0.0130,-0.1420,1.1200,-24.5040,31.3130,-39.6950,34.2700
0.0107,0.0340,-0.1510,1.1720,-22.3050,37.0530,-38.5340,34.1800
0.0111,0.0610,-0.1360,1.2110,-24.1530,29.9390,-34.9770,34.2200
0.0120,0.0800,-0.1140,1.2230,-28.2140,37.0840,-31.4050,34.2700
0.0123,0.0060,-0.1210,1.1510,-23.8320,31.6640,-33.0380,34.3200
0.0127,0.0640,-0.1410,1.1480,-20.8400,30.0000,-33.9690,34.1800
0.0131,0.0690,-0.1460,1.2230,-21.4200,33.7100,-33.6790,34.1800
0.0135,0.0640,-0.1460,1.2310,-23.9080,33.8020,-34.1370,34.2200
0.0143,0.1030,-0.1700,1.2220,-27.9240,40.6110,-31.6640,34.1800
0.0147,0.1090,-0.2030,1.0750,-28.8400,37.6640,-27.8170,34.2200
0.0151,0.0960,-0.2240,1.0490,-28.1830,36.9470,-21.8320,34.1300
0.0155,0.0130,-0.2310,0.9980,-23.1600,27.8470,-20.3210,34.2200
0.0159,-0.0540,-0.2370,1.0310,-18.3820,23.8320,-23.4350,34.2200
0.0163,-0.1430,-0.2020,1.1080,-15.6640,21.4810,-29.0230,34.1800
0.0167,-0.0920,-0.2490,1.0570,-9.7860,21.4350,-36.5040,34.2700
0.0170,-0.0650,-0.2320,1.0720,-7.9690,20.1530,-41.8470,34.3200
0.0173,0.0050,-0.2280,1.0820,-2.0150,17.4660,-43.6490,34.1800
0.0177,0.0920,-0.2050,1.1580,-2.0610,16.8850,-39.9850,34.2200
0.0180,0.1070,-0.1830,1.1610,-4.8850,15.6030,-32.9920,34.2700
0.0183,0.0360,-0.1920,1.1320,-4.7790,11.6180,-28.2750,34.2700
0.0186,-0.0420,-0.2020,1.1140,-4.7630,9.9080,-29.6030,34.2200
0.0192,-0.0780,-0.2230,1.0980,-2.6560,7.1910,-33.4350,34.1800
0.0195,-0.0610,-0.2250,1.1150,-2.1830,6.6560,-38.1370,34.2200
0.0198,-0.0310,-0.2200,1.1250,-3.2670,9.2210,-41.9540,34.2200
0.0202,0.0190,-0.1970,1.1810,-5.4810,12.0610,-42.6560,34.1800
0.0207,0.0410,-0.1850,1.2140,-9.6030,12.9770,-39.8470,34.2200
0.0211,0.0150,-0.1750,1.1450,-10.2900,10.7940,-37.4200,34.1800
0.0214,-0.0290,-0.1990,1.1180,-9.2980,9.3740,-37.4810,34.2700
0.0217,-0.0150,-0.2130,1.0700,-7.7710,10.0920,-38.9160,34.2200
0.0220,-0.0420,-0.2110,1.0740,-5.8630,11.4050,-41.7860,34.1800
0.0224,-0.0990,-0.1930,1.1050,-4.7940,12.4120,-47.3890,34.1300
0.0227,-0.0710,-0.1890,1.1180,-4.3970,15.2520,-54.1980,34.2200
0.0230,0.0210,-0.2180,1.0920,-2.6410,17.7560,-56.4890,34.2700
0.0233,0.1250,-0.2080,1.1070,-4.0000,26.0920,-52.0000,34.2200
0.0236,0.1100,-0.2100,1.0770,-4.4120,26.9920,-46.1680,34.2700
0.0238,0.0360,-0.2080,1.0810,-0.9310,19.2370,-43.8630,34.2700
0.0241,0.0120,-0.1980,1.1240,1.2210,17.7710,-44.4270,34.2200
0.0244,-0.0220,-0.2020,1.1460,-0.5650,14.0610,-46.4430,34.2700
0.0247,-0.0190,-0.1920,1.1480,-2.1530,14.0310,-48.1070,34.1300
0.0250,0.0120,-0.1900,1.1270,-1.2210,14.7480,-49.0380,34.2200
0.0252,0.0160,-0.2060,1.1830,-0.7790,22.5340,-49.0690,34.1800
0.0255,0.0560,-0.1910,1.1570,-6.6560,23.4500,-46.3360,34.2200
0.0258,-0.0090,-0.1850,1.1280,-5.1600,25.0840,-47.1150,34.2700
0.0261,-0.1810,-0.1450,1.1580,-2.1830,15.6790,-55.8170,34.2200
0.0263,-0.0460,-0.1720,1.1590,-2.9770,15.0530,-64.3820,34.2200
0.0266,0.0770,-0.1770,1.1960,0.0610,4.6560,-68.5500,34.1800
0.0269,0.2000,-0.1650,1.2310,-3.6950,20.9620,-59.8320,34.3200
0.0272,0.2030,-0.1820,1.2140,-9.8930,30.6260,-51.7400,34.1800
0.0274,0.0750,-0.1980,1.2510,-13.5730,29.6640,-50.6720,34.2700
0.0277,0.1050,-0.2020,1.1620,-13.9390,30.6260,-51.6180,34.2200
0.0280,0.1180,-0.2050,1.1810,-11.8470,30.5950,-50.8550,34.1800
0.0283,0.1690,-0.1720,1.2120,-18.1830,46.7790,-46.3210,34.2200
0.0287,0.0310,-0.1650,1.2620,-23.1450,51.6640,-44.6110,34.3200
0.0290,-0.0240,-0.1460,1.2160,-26.4270,58.5650,-49.3280,34.1800
0.0292,-0.0430,-0.1740,1.2010,-27.2370,62.5800,-55.5420,34.2200
0.0295,-0.0470,-0.2280,1.1570,-21.8780,67.3890,-62.6260,34.2700
0.0297,0.0120,-0.1990,1.1120,-19.2820,66.4120,-66.9620,34.2200
0.0300,0.0010,-0.2530,1.0940,-17.4350,59.7560,-68.3970,34.2200
0.0302,0.1160,-0.2060,1.1070,-7.4810,49.8630,-67.3280,34.1800
0.0305,0.0150,-0.2930,1.1340,-11.4810,56.3050,-65.6180,34.2200
0.0307,-0.0170,-0.2800,1.0430,-4.8700,50.3970,-66.4730,34.3200
0.0310,0.0640,-0.2630,1.1070,-5.2980,64.8090,-63.8020,34.2700
0.0312,-0.0130,-0.2850,1.1360,-6.3820,69.4960,-61.0230,34.3200
0.0314,-0.0600,-0.2580,1.1120,-5.2820,77.0080,-64.7180,34.2700
0.0316,-0.1500,-0.2830,1.0750,-2.8550,72.0310,-70.3660,34.1800
0.0317,-0.1130,-0.2750,1.0490,0.5500,66.9310,-75.9850,34.2200
0.0319,-0.0390,-0.2760,1.0200,6.8240,65.3740,-78.8550,34.1800
0.0320,-0.1190,-0.2720,1.0630,6.8700,62.4580,-82.2140,34.3200
0.0322,-0.0720,-0.2530,1.1330,8.6560,67.4500,-83.1910,34.2200
0.0323,0.0180,-0.2270,1.1570,-3.7100,74.5190,-83.8780,34.3200
0.0325,-0.0400,-0.2190,1.1340,-4.3360,73.7860,-83.2060,34.2200
0.0326,0.0300,-0.2080,1.1120,-5.9690,59.8630,-81.3280,34.1800
0.0328,0.0210,-0.2090,1.1020,-0.3660,63.5270,-76.0760,34.1300
0.0330,0.0470,-0.1490,1.1510,6.7940,55.4200,-72.7790,34.3200
0.0333,0.0630,-0.1890,1.0350,6.1530,52.7480,-57.1150,34.2700
0.0335,-0.1510,-0.2960,1.0390,5.5110,49.6180,-63.3440,34.2200
0.0338,-0.2820,-0.3070,1.0780,5.1600,44.1980,-70.3510,34.2700
0.0340,-0.3010,-0.3450,0.9880,1.4050,35.4050,-77.8470,34.2700
0.0342,-0.2980,-0.3730,0.9560,10.0460,52.1530,-92.7480,34.3200
0.0345,-0.2810,-0.3640,1.0280,18.3970,60.3210,-110.4120,34.2700
0.0347,-0.1330,-0.2840,1.0410,20.7630,55.5570,-118.1830,34.3200
0.0350,0.0180,-0.2440,1.1120,22.1530,73.5110,-111.4350,34.3200
0.0352,-0.1020,-0.1950,1.2130,23.7100,60.2750,-103.9540,34.2200
0.0354,-0.0790,-0.1860,1.2040,26.2600,40.3970,-93.6030,34.2200
0.0356,-0.0590,-0.1760,1.1770,21.9240,37.9080,-81.3590,34.2700
0.0359,-0.1750,-0.1530,1.2410,26.0920,29.3280,-76.3050,34.2200
0.0361,-0.0810,-0.1790,1.1060,33.3890,37.6180,-94.2140,34.2200
0.0363,-0.2280,-0.2800,1.0900,26.9620,58.7940,-107.2210,34.1800
0.0365,-0.3350,-0.3210,1.0410,42.3050,68.3210,-132.5500,34.2200
0.0369,-0.2370,-0.2010,1.0860,43.3280,61.2670,-145.3440,34.1800
0.0371,-0.3240,-0.2780,1.0430,40.5650,62.4580,-142.0000,34.1800
0.0374,-0.4590,-0.3480,1.1010,45.6340,51.7710,-159.7560,34.3200
0.0376,-0.4700,-0.3580,1.0600,56.9920,17.0530,-169.6030,34.1800
0.0378,-0.3570,-0.3510,1.0110,69.8630,-4.6260,-172.9310,34.1300
0.0380,-0.2350,-0.2730,1.1050,85.0080,-38.6410,-170.1680,34.2200
0.0383,0.1600,-0.1080,0.9190,59.0080,-8.3510,-159.6950,34.2200
0.0385,0.2110,-0.0620,1.1310,44.9620,8.3820,-135.4810,34.2200
0.0387,-0.0870,-0.1780,1.2360,51.1600,-38.7940,-129.6490,34.2700
0.0390,0.0730,-0.0940,1.0440,44.5950,-1.8630,-133.7100,34.2200
0.0392,0.1400,-0.0910,1.0290,46.5650,7.6490,-153.3590,34.2200
0.0394,0.0260,-0.1510,1.0310,41.6640,10.7940,-151.8170,34.2700
0.0396,-0.0990,-0.2490,0.9360,36.4890,9.6790,-153.7250,34.2200
0.0399,-0.1960,-0.1510,0.9330,24.5650,12.2440,-146.5190,34.1800
0.0401,-0.0620,-0.2350,1.0030,36.2750,22.8550,-147.0230,34.1800
0.0403,-0.1170,-0.2010,1.0770,39.1300,28.1070,-153.1150,34.2200
0.0406,-0.1190,-0.2460,1.0470,47.2980,22.2750,-153.5270,34.1800
0.0408,-0.1170,-0.2840,0.9580,45.7860,24.0760,-151.2370,34.2700
0.0410,-0.0160,-0.2320,0.9080,43.7100,22.9160,-143.1600,34.2200
0.0412,-0.0200,-0.2260,0.9410,34.4270,28.8550,-137.8170,34.2700
0.0414,0.6660,-0.0610,0.0440,-36.1980,173.3590,-171.5420,34.2200
0.0416,-0.6380,-0.3490,1.8120,63.0690,5.4660,-201.3130,34.2700
0.0418,-1.0240,-0.4680,1.1900,59.6490,-336.6560,-216.2440,34.2700
0.0420,0.5220,0.2060,1.1760,7.8930,-73.3740,-98.2140,34.2200
0.0422,0.4780,-0.1810,1.0690,-21.9540,68.5040,-74.8850,34.1800
0.0424,0.0180,-0.0980,1.1720,5.4810,71.9850,-96.6110,34.2200
0.0426,-0.4350,-0.1540,1.2670,19.2980,0.1530,-101.3890,34.2200
0.0428,0.0330,-0.1020,1.0110,15.0530,-48.9770,-107.4810,34.2700
0.0431,0.2620,-0.0940,1.0270,1.9240,35.0530,-97.0530,34.2200
0.0433,-0.0170,-0.0820,1.1860,-8.0150,89.8470,-101.9390,34.2700
0.0435,-0.2040,-0.1410,1.1860,-13.8470,97.6180,-102.8240,34.2200
0.0437,-0.2630,-0.2180,1.1560,-5.5880,67.7400,-118.6110,34.2200
0.0439,0.0080,-0.2640,1.0480,3.6640,65.8930,-135.9540,34.3200
0.0441,-0.0390,-0.3560,1.0100,18.4580,87.8930,-151.9390,34.3200
0.0443,-0.1170,-0.2980,1.0730,32.9160,99.9850,-178.6110,34.2700
0.0445,-0.0620,-0.1840,1.1300,40.6110,107.8930,-194.7480,34.1800
0.0447,-0.1630,-0.1700,1.2040,56.8090,110.8850,-195.9240,34.2200
0.0449,-0.2700,-0.1230,1.2300,59.9240,72.1530,-178.3360,34.1800
0.0452,-0.2010,-0.1130,1.2050,70.9620,33.8930,-155.1150,34.2200
0.0455,-0.2020,-0.0310,1.2080,72.1370,4.2440,-133.0080,34.1800
0.0457,0.1480,0.0110,1.1520,0.5040,22.2900,-41.6640,34.6500
0.0460,0.1600,0.0140,1.1730,-0.2600,22.9770,-41.7560,34.6500
0.0462,0.1700,0.0160,1.1770,0.7020,24.3660,-42.5040,34.6000
0.0464,0.1460,0.0130,1.1710,1.0840,25.2820,-42.7180,34.6500
0.0466,0.1240,0.0070,1.1680,0.9010,21.0380,-43.1910,34.6000
0.0492,0.1130,-0.0020,1.1760,2.9310,16.7020,-43.7250,34.6000
0.0614,0.1320,-0.0020,1.1660,2.7790,17.4500,-42.7790,34.6500
0.0683,0.1640,-0.0100,1.1740,2.4890,21.5570,-42.5340,34.5100
0.0806,0.1600,-0.0180,1.1540,3.3890,24.6560,-43.6640,34.5500
0.0929,0.1300,0.0000,1.1540,3.3130,24.8700,-43.8320,34.5100
0.0998,0.1130,-0.0030,1.1530,3.3130,23.3740,-43.9390,34.6000
0.1121,0.1200,0.0010,1.1280,2.8400,21.0990,-44.4730,34.6500
0.1191,0.1180,-0.0020,1.1260,1.3280,15.1600,-44.9310,34.5500
0.1313,0.1530,-0.0070,1.1460,-1.0990,14.4430,-44.8090,34.6000
0.1380,0.1450,-0.0030,1.1840,-1.3130,16.0460,-44.5190,34.5500
0.1503,0.1330,-0.0010,1.2060,-0.1980,17.7560,-43.5420,34.6900
0.1626,0.1190,-0.0090,1.1770,-0.2140,23.6640,-41.3440,34.6000
0.1694,0.1260,-0.0240,1.1850,0.8550,25.4660,-40.0920,34.6500
0.1818,0.1320,-0.0230,1.1660,1.1300,24.5190,-38.8240,34.6000
0.1887,0.1540,-0.0210,1.1910,1.0690,23.7710,-38.5340,34.6500
0.2009,0.1560,-0.0170,1.1860,0.9310,24.5650,-38.1980,34.5500
0.2132,0.1360,-0.0120,1.1790,1.9540,23.4810,-38.5040,34.6900
0.2199,0.1600,-0.0100,1.1770,2.2140,21.6180,-38.4890,34.4600
0.2322,0.1840,-0.0020,1.1740,2.5190,23.3890,-39.1910,34.6000
0.2393,0.1600,0.0050,1.1580,2.3820,26.9310,-39.4200,34.6000
0.2516,0.1560,0.0120,1.1460,1.2210,26.5650,-38.8090,34.6500
0.2587,0.1540,0.0230,1.1480,0.4730,27.5880,-38.3360,34.6000
0.2717,0.1300,0.0270,1.1450,0.3210,28.5500,-37.9390,34.6000
0.2831,0.1170,0.0340,1.1660,0.6260,24.9620,-37.8930,34.6000
0.2903,0.1410,0.0320,1.1450,0.9310,28.7630,-37.5880,34.5100
0.3024,0.1030,0.0340,1.1350,0.8550,31.7860,-36.6720,34.5500
0.3096,0.1030,0.0360,1.1490,-0.0610,26.0460,-37.5420,34.5500
0.3219,0.1080,0.0240,1.1500,0.6410,25.8170,-37.3280,34.6900
0.3290,0.1150,0.0210,1.1460,-0.7330,26.1530,-36.4730,34.5500
0.3411,0.1380,0.0260,1.1680,-2.3360,25.4200,-36.7480,34.5100
0.3533,0.1340,0.0110,1.1620,-0.3820,26.6870,-37.3280,34.6000
0.3604,0.1490,0.0100,1.1710,-1.2980,26.9470,-37.6030,34.6500
0.3725,0.1530,0.0050,1.1900,-0.3510,27.8020,-38.8240,34.6000
0.3795,0.1560,-0.0100,1.1730,2.0150,28.3820,-40.9620,34.6000
0.3920,0.1370,-0.0060,1.1700,2.6110,28.1980,-42.3970,34.5500
0.3985,0.1210,-0.0190,1.1630,3.4050,26.4270,-44.5500,34.5100
0.4108,0.0860,-0.0160,1.1410,4.2290,24.7630,-45.6030,34.5500
0.4230,0.0550,-0.0140,1.1250,4.1680,19.4810,-45.6790,34.5500
0.4303,0.0530,-0.0170,1.1230,5.0380,14.8240,-45.3890,34.6000
0.4424,0.0730,-0.0110,1.1250,5.7710,16.5800,-43.9080,34.5500
0.4493,0.0680,-0.0140,1.1190,6.3210,19.1600,-41.9540,34.5100
0.4615,0.0550,-0.0040,1.0950,5.5880,22.9920,-38.3050,34.6900
0.4685,0.0430,-0.0040,1.0960,4.7940,22.4580,-35.8470,34.6500
0.4806,0.0610,0.0180,1.0950,3.1300,22.2600,-32.9160,34.5100
0.4930,0.1040,0.0320,1.1080,2.7630,22.7330,-32.3360,34.6900
0.5002,0.1310,0.0430,1.1270,1.7100,21.8170,-32.5340,34.6500
0.5124,0.1620,0.0440,1.1330,1.6790,20.7790,-34.7630,34.6000
0.5193,0.1670,0.0470,1.1330,2.6410,23.1150,-36.4430,34.6500
0.5314,0.1350,0.0560,1.1260,1.2210,22.1220,-37.1600,34.6000
0.5384,0.1370,0.0620,1.1160,-1.5570,20.5650,-36.7020,34.6000
0.5507,0.1430,0.0680,1.1220,-1.9690,20.3970,-36.6560,34.6500
0.5630,0.1370,0.0670,1.1020,-2.3660,21.1600,-36.9310,34.6900
0.5702,0.1400,0.0560,1.1200,-3.9080,21.9390,-36.9160,34.6900
0.5823,0.1350,0.0550,1.1240,-4.3970,27.8930,-34.7630,34.5500
0.5893,0.1080,0.0530,1.1160,-3.5110,27.0990,-32.3970,34.6000
0.6016,0.1150,0.0560,1.0780,-7.2670,29.7560,-31.0530,34.6000
0.6085,0.1150,0.0690,1.0590,-8.2290,29.0690,-30.0610,34.5500
0.6215,0.1330,0.1890,1.1660,-17.8470,36.5950,-28.2600,34.6000
0.6328,0.1040,0.1000,1.0340,-15.2820,28.3510,-31.0080,34.5500
0.6394,0.1170,0.1030,1.0700,-16.7330,25.3130,-33.9690,34.5500
0.6518,0.1210,0.0680,1.0790,-16.0610,21.6340,-36.7790,34.6000
0.6588,0.1360,0.0440,1.1460,-13.4810,19.9390,-39.3740,34.6500
0.6709,0.1170,0.0330,1.1540,-10.9160,22.6110,-41.0990,34.6000
0.6830,0.0920,0.0200,1.1250,-10.8240,23.7400,-41.4500,34.6000
0.6897,0.0790,0.0400,1.1210,-13.0080,20.6110,-41.5270,34.6500
0.7020,0.0520,0.0430,1.1430,-13.6030,14.9920,-41.5420,34.6000
0.7091,0.0860,0.0320,1.1250,-14.5950,12.1530,-41.2370,34.5500
0.7211,0.1240,0.0270,1.1310,-16.5650,14.7480,-40.7480,34.6000
0.7330,0.1230,0.0110,1.1370,-17.5420,17.5110,-40.1220,34.6000
0.7403,0.1010,0.0120,1.1310,-17.2980,21.2670,-39.5730,34.6500
0.7520,0.1000,0.0000,1.1510,-17.9850,19.9080,-39.5270,34.6900
0.7593,0.0890,-0.0090,1.1710,-16.3360,23.0080,-39.5730,34.6000
0.7716,0.1060,-0.0260,1.1840,-14.4730,19.2210,-40.9010,34.5500
0.7830,0.1190,-0.0370,1.1810,-12.7790,18.1370,-42.9470,34.6000
0.7900,0.0910,-0.0470,1.1850,-12.0000,16.7330,-43.4050,34.5500
0.8020,0.0590,-0.0510,1.1630,-12.1220,14.3210,-43.5730,34.6500
0.8091,0.0480,-0.0370,1.1620,-12.7790,10.5650,-42.7630,34.6900
0.8214,0.0560,-0.0430,1.1680,-11.8930,7.0530,-42.5650,34.6500
0.8330,0.0790,-0.0510,1.1660,-11.8470,7.3890,-41.6340,34.6000
0.8399,0.0820,-0.0520,1.1530,-11.4200,7.4050,-39.9080,34.6000
0.8519,0.0950,-0.0690,1.1570,-11.5730,8.1980,-38.4580,34.6500
0.8591,0.1440,-0.0800,1.2010,-10.5340,9.3740,-36.5650,34.6900
0.8718,0.1660,-0.0810,1.1870,-7.6340,16.7630,-35.7560,34.6000
0.8829,0.1620,-0.0540,1.1770,-9.3740,20.6870,-35.2060,34.5500
0.8899,0.1670,-0.0450,1.1750,-9.6180,22.2140,-35.4810,34.6900
0.9020,0.1610,-0.0280,1.1680,-9.1910,25.6490,-36.0610,34.6500
0.9092,0.1490,-0.0200,1.1590,-9.9690,23.1910,-37.2520,34.6000
0.9212,0.1370,-0.0230,1.1630,-10.9770,19.0690,-38.9920,34.6000
0.9333,0.1350,-0.0320,1.1570,-11.7100,16.3970,-39.7100,34.7400
0.9399,0.1450,-0.0470,1.1650,-12.0000,16.6560,-40.8550,34.6000
0.9520,0.1400,-0.0630,1.1910,-10.6410,18.0610,-41.6790,34.6900
0.9591,0.1420,-0.0540,1.1950,-9.0380,19.8930,-41.9080,34.7400
0.9710,0.1080,-0.0600,1.2270,-6.1830,19.3280,-42.0460,34.6000
0.9858,0.0950,-0.0470,1.2100,-1.4050,16.6870,-42.6110,34.7400
0.9899,0.0860,-0.0480,1.1930,-2.8550,17.6340,-40.5500,34.6500
1.0018,0.1090,-0.0460,1.1960,-3.6790,18.1370,-40.6110,34.6000
1.0088,0.0940,-0.0450,1.1730,-3.4500,18.5800,-41.0840,34.6500
1.0207,0.1000,-0.0530,1.1620,-0.9620,14.7020,-41.8020,34.6000
1.0330,0.0780,-0.0230,1.1760,-5.9690,12.5040,-41.2670,34.6900
1.0397,0.1010,-0.0220,1.1860,-6.7180,15.4050,-40.5950,34.6500
1.0521,0.1030,-0.0400,1.1740,-6.5190,13.1150,-40.5500,34.6900
1.0589,0.1220,-0.0430,1.1650,-9.1600,12.5800,-40.6560,34.7400
1.0710,0.1370,-0.0600,1.1960,-8.1680,14.1070,-40.5950,34.6500
1.0766,0.1370,-0.0580,1.2180,-7.4200,18.7630,-40.1680,34.6000
1.0901,0.1170,-0.0410,1.2360,-8.4120,21.8470,-39.6180,34.6500
1.1024,0.1000,-0.0400,1.2560,-8.4270,21.5420,-39.0530,34.6900
1.1091,0.1140,-0.0390,1.2420,-9.6340,21.1600,-37.8630,34.6900
1.1213,0.1260,-0.0510,1.2360,-10.1220,22.9310,-37.0230,34.6500
1.1281,0.1120,-0.0630,1.2020,-10.1530,23.9390,-36.5650,34.6900
1.1402,0.1510,-0.0910,1.2380,-9.2520,20.6560,-36.4270,34.6000
1.1524,0.1870,-0.1020,1.2410,-6.2440,25.0690,-36.3050,34.6500
1.1592,0.1900,-0.1120,1.2290,-5.6640,32.3970,-35.4350,34.6000
1.1714,0.1640,-0.1100,1.2120,-6.2440,37.3590,-35.6790,34.6500
1.1782,0.1180,-0.0860,1.1770,-6.8700,37.2060,-36.2900,34.5500
1.1904,0.1020,-0.0640,1.1790,-7.6490,33.5420,-38.4730,34.6000
1.2024,0.0750,-0.0600,1.1560,-6.4580,28.6870,-40.8550,34.6500
1.2097,0.0510,-0.0560,1.1450,-5.3440,20.6260,-42.3050,34.6000
1.2217,0.0610,-0.0620,1.1200,-6.1370,17.1600,-41.4810,34.6900
1.2287,0.0860,-0.0660,1.1430,-6.5040,15.7400,-40.5650,34.6000
1.2404,0.1580,-0.0710,1.1650,-6.2290,18.0310,-39.9240,34.6000
1.2527,0.1690,-0.0620,1.1730,-6.7940,27.8630,-38.2290,34.6500
1.2597,0.1470,-0.0440,1.1720,-8.1680,33.5730,-37.3280,34.6500
1.2717,0.1310,-0.0280,1.1530,-10.0000,33.9080,-36.1830,34.6900
1.2785,0.1680,-0.0390,1.1610,-11.2670,31.4660,-37.2370,34.6500
1.2905,0.2260,-0.0290,1.1580,-8.6110,35.8630,-38.6110,34.6000
1.3027,0.1270,-0.0370,1.1470,-12.0760,30.4430,-40.4120,34.6000
1.3094,0.1500,-0.0440,1.1260,-13.2670,27.3280,-40.6870,34.6500
1.3214,0.1490,-0.0720,1.1590,-14.2750,29.5880,-41.6030,34.6900
1.3285,0.1250,-0.0750,1.1610,-13.2670,26.4430,-41.8020,34.6500
1.3405,0.1320,-0.0880,1.1850,-13.1300,26.9620,-41.9850,34.7400
1.3525,0.0920,-0.0860,1.2050,-11.1760,27.2670,-42.3970,34.6900
1.3595,0.0860,-0.0830,1.1930,-9.3740,26.3820,-42.0460,34.6500
1.3717,0.0850,-0.0830,1.1620,-8.2600,27.5570,-41.7860,34.6900
1.3784,0.0890,-0.0810,1.1310,-8.8550,25.9540,-42.1680,34.6900
1.3905,0.0770,-0.0600,1.1120,-12.2140,25.1600,-42.3660,34.7400
1.4025,0.0340,-0.0660,1.0730,-10.0610,23.4200,-42.5040,34.6900
1.4095,0.0380,-0.0390,1.1020,-13.8170,17.1910,-40.9160,34.6500
1.4217,0.0620,-0.0500,1.0740,-14.8400,17.1300,-40.1070,34.6000
1.4273,0.0970,-0.0430,1.0990,-16.6870,17.4050,-38.8240,34.7900
1.4404,0.1050,-0.0450,1.1090,-18.6260,20.5800,-38.5500,34.6500
1.4523,0.1140,-0.0490,1.1450,-18.5650,23.1150,-36.6720,34.6000
1.4592,0.0880,-0.0840,1.1040,-17.0530,25.5270,-36.8090,34.6900
1.4716,0.1230,-0.0750,1.1220,-20.5340,28.1370,-35.2520,34.6500
1.4833,0.1350,-0.0810,1.1430,-20.8240,26.8240,-36.2750,34.7900
1.4902,0.1360,-0.1070,1.1790,-16.9160,24.1530,-37.7710,34.7400
1.5020,0.1430,-0.1030,1.1770,-16.1980,26.4890,-38.8550,34.6500
1.5092,0.1270,-0.1040,1.1730,-18.0150,32.9470,-38.6870,34.6900
1.5211,0.1050,-0.1140,1.1690,-19.8930,29.2370,-40.6870,34.6500
1.5331,0.1280,-0.1150,1.2040,-16.8850,25.6950,-43.4810,34.6900
1.5397,0.0970,-0.1060,1.2390,-14.3820,22.8090,-45.0380,34.6900
1.5519,0.0600,-0.1200,1.2670,-11.0080,19.9850,-48.1070,34.6500
1.5588,0.0410,-0.1200,1.2610,-6.8700,22.4580,-47.1760,34.6900
1.5711,0.0210,-0.1200,1.1920,-9.3590,22.0310,-44.2440,34.6500
1.5828,0.0490,-0.1280,1.1630,-13.0380,14.7940,-42.3210,34.7400
1.5897,0.1000,-0.1350,1.1670,-14.1680,11.8020,-41.6950,34.6900
1.6019,0.1600,-0.1280,1.1900,-17.5570,14.6560,-42.2750,34.7400
1.6088,0.1980,-0.1450,1.1940,-14.8240,18.0760,-45.3440,34.6000
1.6207,0.1710,-0.1600,1.2130,-16.8700,20.7020,-48.0610,34.7900
1.6325,0.1130,-0.1560,1.2130,-16.3970,21.7400,-48.9010,34.6500
1.6395,0.0740,-0.1620,1.1990,-14.4430,19.7100,-48.8400,34.6900
1.6516,0.0870,-0.1630,1.2390,-17.0690,14.9920,-49.2370,34.7400
1.6586,0.0960,-0.1780,1.2530,-10.8550,16.1220,-49.9240,34.7400
1.6705,0.0750,-0.1800,1.2380,-8.9770,16.7330,-49.0530,34.6000
1.6825,0.0500,-0.1860,1.2380,-7.1760,14.2600,-47.6790,34.7400
1.6892,0.0680,-0.1870,1.1790,-5.3740,16.2140,-45.1600,34.7400
1.7016,0.0990,-0.1700,1.1980,-9.7860,15.4810,-44.1530,34.6900
1.7085,0.1380,-0.1760,1.1950,-9.5570,19.0690,-43.9690,34.6500
1.7208,0.1320,-0.1620,1.1810,-11.2670,24.2440,-44.1830,34.6900
1.7325,0.1030,-0.1660,1.1760,-11.2520,20.3050,-45.2820,34.6900
1.7394,0.1010,-0.1690,1.1700,-9.2370,17.7560,-46.1830,34.6500
1.7516,0.1080,-0.1730,1.1370,-12.3050,16.0460,-46.5340,34.6900
1.7586,0.1100,-0.1750,1.1890,-10.3510,13.2670,-48.0150,34.7400
1.7705,0.1130,-0.1890,1.1690,-8.3660,18.0150,-48.2900,34.6500
1.7824,0.1030,-0.1780,1.1750,-9.2670,22.7020,-47.7710,34.6900
1.7895,0.0730,-0.2010,1.1590,-9.2520,17.2820,-48.1980,34.6500
1.8016,0.0850,-0.1900,1.1710,-9.0990,22.0000,-46.9010,34.6000
1.8086,0.0920,-0.1910,1.2050,-6.9770,20.8240,-46.7790,34.6000
1.8207,0.0940,-0.1780,1.2140,-5.3130,21.2670,-46.4730,34.6500
1.8324,0.0880,-0.1830,1.1940,-4.7940,20.1680,-45.3890,34.6900
1.8396,0.0830,-0.1890,1.1820,-4.7940,20.4430,-44.6110,34.6500
1.8516,0.1040,-0.1780,1.1680,-7.0990,19.4350,-43.9080,34.6500
1.8586,0.1330,-0.1830,1.1580,-8.4730,20.3820,-44.7630,34.6900
1.8705,0.1180,-0.1850,1.1900,-9.9540,17.7100,-46.0000,34.6500
1.8827,0.1120,-0.1860,1.1880,-9.0530,20.4430,-45.8930,34.6500
1.8894,0.0900,-0.1830,1.1970,-8.9470,19.4960,-45.4350,34.7900
1.9018,0.0920,-0.1840,1.1820,-9.4660,21.1450,-45.1150,34.6500
1.9088,0.0880,-0.1830,1.1860,-9.4810,20.5040,-45.3740,34.6900
1.9209,0.0940,-0.1850,1.1650,-10.3360,21.2060,-45.4350,34.6900
1.9327,0.0920,-0.1840,1.1700,-9.3130,23.1910,-45.1150,34.7900
1.9396,0.0830,-0.1800,1.1900,-8.6410,19.6340,-45.2670,34.6900
1.9518,0.0980,-0.1870,1.2100,-7.3130,18.3360,-45.0530,34.7400
1.9592,0.1080,-0.1940,1.2250,-6.6870,20.7330,-45.2060,34.7400
1.9709,0.0940,-0.1990,1.2150,-5.3740,23.2060,-44.9620,34.7900
1.9831,0.0720,-0.1910,1.2200,-4.5800,22.8850,-44.2440,34.7400
1.9897,0.0770,-0.1890,1.2050,-3.4810,23.2820,-42.6410,34.6900
2.0019,0.1070,-0.1920,1.1850,-3.3440,27.5110,-42.0760,34.7900
2.0092,0.0980,-0.1860,1.1730,-4.5800,27.7400,-42.5190,34.6500
2.0213,0.0980,-0.1850,1.1650,-6.1220,25.8470,-43.1150,34.7900
2.0333,0.0980,-0.1850,1.1690,-6.1830,23.9390,-44.4120,34.6500
2.0399,0.0910,-0.1900,1.1560,-5.5880,22.6870,-45.6790,34.6500
2.0524,0.0700,-0.1910,1.1520,-6.3210,19.1760,-46.1680,34.6900
2.0593,0.0750,-0.1980,1.1530,-7.2210,15.1150,-45.9690,34.6500
2.0713,0.0840,-0.2030,1.1590,-7.4200,16.1980,-45.1150,34.7400
2.0832,0.0930,-0.2130,1.1560,-6.7480,19.3740,-44.6870,34.6900
2.0904,0.1140,-0.2450,1.1860,-11.3130,33.8320,-41.3590,34.7400
2.1023,0.0840,-0.2120,1.2070,-13.6030,17.7400,-41.4810,34.6900
2.1093,0.0940,-0.1610,1.2640,-11.6180,25.0080,-41.3440,34.6900
2.1213,0.1120,-0.2310,1.1630,-5.4660,21.5570,-42.6410,34.6900
2.1333,0.1110,-0.2140,1.1670,-6.1830,15.5420,-43.8470,34.6900
2.1400,0.1210,-0.1970,1.1770,-8.0460,16.0310,-44.2750,34.6500
2.1524,0.1050,-0.1920,1.1530,-9.1300,17.4200,-44.1220,34.6500
2.1593,0.1010,-0.1960,1.1270,-10.9920,18.1980,-43.8320,34.6900
2.1716,0.1010,-0.1860,1.1400,-11.9540,15.2370,-44.1370,34.7400
2.1833,0.1260,-0.1940,1.1500,-11.1600,15.9690,-45.4350,34.6900
2.1900,0.1390,-0.1930,1.1380,-10.3820,24.8850,-44.7940,34.6900
2.2021,0.1190,-0.1900,1.1200,-10.5190,27.3740,-44.8700,34.7400
2.2092,0.0900,-0.1750,1.1380,-13.8020,21.2370,-45.5880,34.6900
2.2211,0.1220,-0.1790,1.1480,-13.3890,20.4430,-44.4430,34.7900
2.2331,0.1320,-0.1880,1.1600,-13.4200,15.2210,-46.0310,34.6500
2.2398,0.1520,-0.2060,1.1340,-10.8550,15.0840,-47.5110,34.6900
2.2520,0.1300,-0.2230,1.1670,-10.9620,17.3890,-47.7100,34.6900
2.2589,0.1190,-0.2410,1.1810,-9.0990,18.7630,-47.2980,34.6500
2.2708,0.0780,-0.2520,1.1940,-8.3050,16.3360,-47.0230,34.6900
2.2832,0.1120,-0.2400,1.2040,-7.8470,16.3820,-47.9850,34.6500
2.2898,0.1300,-0.2380,1.1760,-5.0230,16.8400,-48.2750,34.6500
2.3021,0.0960,-0.2410,1.1670,-3.2520,22.5040,-48.4270,34.6000
2.3091,0.0640,-0.2330,1.1340,-4.1530,20.1680,-47.5730,34.6500
2.3211,0.0690,-0.2350,1.1570,-4.0310,16.4120,-46.4730,34.6500
2.3331,0.0880,-0.2320,1.1590,-3.1910,16.3050,-45.9390,34.6900
2.3401,0.1030,-0.2260,1.1350,-2.2600,20.3050,-44.1070,34.7400
2.3521,0.0820,-0.2140,1.1050,-4.5340,20.2440,-43.6950,34.6900
2.3593,0.1080,-0.2040,1.1080,-6.7330,21.1760,-42.8850,34.7900
2.3710,0.1110,-0.1980,1.1010,-8.0310,22.4730,-42.3510,34.7400
2.3833,0.1520,-0.2090,1.1290,-6.9010,22.6260,-43.1910,34.6000
2.3899,0.1710,-0.2100,1.1200,-7.6180,26.3970,-44.7330,34.6500
2.4022,0.1310,-0.2130,1.1330,-8.0760,23.4500,-46.4890,34.7400
2.4089,0.1330,-0.2170,1.1320,-7.2210,18.2140,-48.2900,34.7900
2.4212,0.1210,-0.2290,1.1420,-6.5650,21.6490,-48.6720,34.6500
2.4266,0.0790,-0.2400,1.1440,-4.6720,20.1830,-49.4960,34.6900
2.4401,0.0450,-0.2380,1.1370,-3.8320,17.8780,-49.7250,34.6000
2.4524,0.0310,-0.2440,1.1330,-2.2600,12.1980,-49.3590,34.7400
2.4591,0.0820,-0.2610,1.1150,-2.0920,10.5650,-49.4660,34.6900
2.4714,0.1040,-0.2420,1.1080,-6.0460,17.8780,-46.8700,34.6900
2.4781,0.1170,-0.2410,1.1440,-10.0150,22.2600,-44.7180,34.7400
2.4902,0.1320,-0.2370,1.1700,-12.2290,28.1370,-42.4730,34.6900
2.5025,0.0970,-0.2310,1.1790,-10.6870,28.2900,-41.1450,34.6900
2.5092,0.1110,-0.2220,1.1770,-10.9470,23.8780,-40.8400,34.6500
2.5211,0.1470,-0.2220,1.1980,-9.0080,20.2900,-43.0840,34.6900
2.5267,0.1610,-0.2220,1.1660,-7.6340,22.5650,-45.8320,34.7400
2.5402,0.0980,-0.2160,1.1110,-8.4430,21.1760,-46.7940,34.6500
2.5525,0.0760,-0.2150,1.1170,-9.9080,17.6490,-47.4050,34.6900
2.5592,0.0940,-0.2300,1.1290,-10.2140,18.9470,-47.1450,34.6500
2.5712,0.1060,-0.2320,1.1350,-9.8170,22.6410,-46.4580,34.6500
2.5783,0.0950,-0.2240,1.1550,-11.1300,23.9240,-45.6490,34.6900
2.5903,0.0920,-0.2290,1.1700,-10.8700,23.3740,-45.6340,34.6500
2.6023,0.0740,-0.2330,1.1860,-14.2750,20.2600,-44.9770,34.6900
2.6093,0.1050,-0.2460,1.2170,-9.5270,18.1070,-44.6560,34.6000
2.6219,0.1320,-0.2510,1.2150,-7.3590,15.4200,-45.5730,34.6500
2.6270,0.1320,-0.2380,1.1960,-7.3740,19.6340,-45.7860,34.6900
2.6403,0.1770,-0.2200,1.1040,-8.7330,29.6340,-44.7020,34.6500
2.6526,0.0910,-0.2500,1.1450,-11.4050,16.4120,-45.8780,34.7400
2.6595,0.1130,-0.2580,1.1770,-13.8470,13.2060,-46.4270,34.6900
2.6713,0.1540,-0.2610,1.1990,-11.9240,16.3820,-46.5340,34.7400
2.6832,0.1400,-0.2680,1.2210,-10.8400,20.7790,-46.4270,34.6900
2.6900,0.0920,-0.2720,1.2260,-10.9920,23.4960,-44.8400,34.6900
2.7023,0.1140,-0.2730,1.2640,-9.2980,23.1910,-44.1070,34.6500
2.7094,0.1190,-0.2730,1.2340,-6.9470,22.6110,-44.4890,34.7900
2.7214,0.1140,-0.2640,1.1860,-7.0080,20.2600,-45.6950,34.6900
2.7333,0.1180,-0.2600,1.1560,-7.0530,18.6110,-46.8400,34.7400
2.7403,0.0900,-0.2510,1.1400,-8.9770,17.6790,-47.4050,34.6900
2.7525,0.0900,-0.2580,1.1590,-9.7400,14.2290,-47.6950,34.6500
2.7596,0.1080,-0.2790,1.1740,-8.9160,18.5950,-47.3440,34.7400
2.7714,0.0740,-0.2950,1.1840,-7.6950,22.5950,-46.2290,34.7900
2.7784,0.0470,-0.3010,1.1830,-7.8470,18.4580,-45.1600,34.7400
2.7903,0.0740,-0.3100,1.2100,-6.9010,15.0080,-44.5950,34.6500
2.8025,0.0930,-0.3150,1.2460,-3.9690,15.9690,-44.4270,34.6900
2.8095,0.1090,-0.3210,1.2180,-2.0610,18.3360,-43.4810,34.7400
2.8216,0.1270,-0.3170,1.2130,-2.2440,19.9390,-43.2370,34.6900
2.8286,0.1310,-0.3130,1.2200,-3.5420,20.9620,-43.8470,34.6900
2.8406,0.1300,-0.3130,1.2030,-2.2290,21.2820,-44.7630,34.6500
2.8528,0.1140,-0.3110,1.2120,-1.6340,17.3740,-45.8170,34.6900
2.8598,0.1350,-0.3070,1.2450,0.3660,12.4120,-47.0990,34.7400
2.8719,0.1420,-0.3030,1.2570,1.3130,18.5190,-46.3360,34.6900
2.8790,0.1360,-0.3120,1.2660,1.1450,19.7710,-45.4810,34.6900
2.8910,0.1660,-0.3250,1.2780,3.1300,20.1220,-46.0000,34.6500
2.9032,0.1700,-0.3250,1.3070,5.8630,23.4350,-47.3440,34.7400
2.9101,0.1350,-0.3280,1.2940,7.9690,24.8240,-47.8780,34.7900
2.9222,0.1350,-0.3300,1.3110,8.9770,23.9240,-47.6180,34.7400
2.9294,0.1560,-0.3240,1.3210,10.9160,26.0000,-46.9010,34.6900
2.9415,0.1590,-0.3200,1.3100,12.4580,30.9620,-45.9390,34.6000
2.9481,0.1390,-0.3100,1.3100,14.1980,34.6560,-44.4730,34.6500
2.9606,0.1000,-0.3190,1.3010,16.0000,36.7020,-41.9690,34.6900
2.9724,0.0960,-0.3030,1.2660,10.7330,38.7630,-40.2440,34.7400
2.9797,0.1400,-0.2820,1.2440,14.9770,40.1980,-39.7710,34.7400
2.9917,0.1340,-0.2730,1.2600,15.9240,41.5270,-40.5500,34.6900
2.9986,0.0440,-0.2680,1.2400,19.5420,40.3050,-41.4050,34.7400
3.0107,0.0360,-0.2590,1.2990,19.0530,34.5500,-39.6790,34.6500
3.0229,0.0700,-0.2580,1.3330,24.1070,35.5420,-37.6640,34.6000
3.0299,0.0730,-0.2200,1.3330,26.7790,36.9310,-35.8170,34.6500
3.0420,0.0720,-0.2360,1.3020,31.4050,35.1910,-35.6950,34.6900
3.0486,0.0760,-0.2130,1.2820,33.4960,37.8930,-33.6340,34.7900
3.0610,0.0520,-0.2080,1.2320,36.1370,46.5500,-26.9310,34.6500
3.0732,0.0570,-0.2070,1.2060,34.1830,37.0690,-32.7180,34.6900
3.0801,0.1070,-0.1830,1.2070,32.8850,34.6260,-34.0460,34.6500
3.0921,0.0970,-0.1850,1.2070,34.6110,37.6950,-35.4960,34.6500
3.0988,0.0800,-0.1730,1.1790,31.6340,36.6560,-36.7630,34.6900
3.1111,0.0640,-0.1720,1.1870,25.8630,31.6490,-39.3740,34.7400
3.1230,0.0700,-0.1600,1.2330,20.7480,30.9920,-38.9920,34.6900
3.1301,0.0730,-0.1690,1.2850,23.5110,25.6030,-39.0380,34.7900
3.1421,0.0510,-0.1710,1.2540,24.2750,23.1300,-38.7630,34.7400
3.1493,0.0240,-0.1460,1.2350,19.1600,16.8550,-37.1910,34.6900
3.1611,0.0580,-0.1380,1.2650,14.8850,15.1910,-38.3510,34.7900
3.1733,0.0370,-0.1360,1.2880,16.6110,16.8240,-39.1760,34.7400
3.1801,-0.0490,-0.1110,1.2300,18.7790,12.5950,-39.1150,34.6900
3.1924,-0.0810,-0.1050,1.1260,17.8020,-3.6490,-37.5110,34.7900
3.1991,-0.0320,-0.0980,1.1550,17.0840,-9.4960,-34.6870,34.7400
3.2111,0.0220,-0.0750,1.1570,16.8090,-11.4660,-30.9310,34.6900
3.2230,0.0830,-0.0760,1.1430,12.8400,-6.0760,-27.8020,34.6500
3.2302,0.1440,-0.0830,1.1330,7.8470,1.8630,-26.3510,34.7400
3.2423,0.1770,-0.1040,1.1530,4.9160,8.0150,-27.8630,34.6900
3.2494,0.1920,-0.1470,1.1870,8.8400,11.4200,-32.0760,34.7400
3.2617,0.1720,-0.1750,1.2080,12.2290,13.9390,-36.7020,34.7400
3.2686,0.1430,-0.1850,1.2310,13.7860,13.8630,-40.3510,34.7900
3.2807,0.1300,-0.1990,1.2760,19.4050,14.0760,-43.8780,34.7400
3.2929,0.1120,-0.2010,1.2850,21.6490,16.0460,-46.2750,34.6900
3.2998,0.0480,-0.1970,1.2700,22.9010,15.5110,-45.2820,34.6000
3.3119,0.0530,-0.1860,1.2620,22.9470,12.4890,-43.5270,34.7400
3.3187,0.0630,-0.1620,1.2490,22.5340,17.9240,-39.2980,34.6900
3.3309,0.0940,-0.1350,1.2360,22.8700,22.7790,-35.9690,34.6900
3.3429,0.0860,-0.1190,1.2270,21.7250,24.5190,-34.5040,34.6500
3.3499,0.1040,-0.0990,1.2300,22.6560,21.4660,-33.2210,34.6900
3.3619,0.1580,-0.1010,1.2320,24.1530,22.9920,-34.9920,34.7400
3.3691,0.1310,-0.0940,1.1980,27.2980,28.1370,-35.8780,34.7900
3.3809,0.1020,-0.0860,1.1940,27.0840,22.0610,-37.0230,34.7900
3.3930,0.1290,-0.0770,1.2030,27.7400,21.1300,-38.5500,34.7400
3.4000,0.1490,-0.0700,1.1720,27.8320,25.9850,-39.5570,34.7400
3.4121,0.1250,-0.0360,1.1470,26.6410,28.8550,-40.1680,34.6900
3.4191,0.0920,-0.0250,1.1210,25.3440,29.7100,-40.2600,34.7400
3.4310,0.0930,-0.0250,1.0790,20.6720,27.9690,-40.9160,34.6900
3.4433,0.0940,-0.0330,1.1100,19.9240,21.9690,-42.2750,34.6900
3.4502,0.1040,-0.0440,1.1390,19.0690,22.8850,-43.4810,34.7400
3.4626,0.0920,-0.0630,1.1520,21.2670,21.1300,-45.4350,34.7900
3.4694,0.1030,-0.0550,1.2100,22.3510,17.0990,-47.5730,34.6000
3.4814,0.0770,-0.0590,1.2020,25.2820,24.3510,-46.8090,34.6500
3.4933,0.0270,-0.0360,1.1820,24.3820,29.8780,-43.8170,34.6900
3.5003,0.0600,-0.0280,1.1730,24.5950,28.3820,-41.2980,34.7400
3.5124,0.0590,-0.0300,1.1480,23.8170,27.3440,-38.9920,34.7400
3.5195,0.0760,-0.0090,1.1400,22.3360,31.0990,-36.8090,34.6900
3.5313,0.1070,-0.0040,1.1340,20.3970,30.2440,-37.1760,34.7400
3.5384,0.1350,-0.0040,1.1130,19.6490,30.1680,-39.5880,34.6900
3.5507,0.1310,0.0090,1.0910,17.9850,29.0380,-43.1600,34.6900
3.5625,0.1110,0.0050,1.1000,16.4120,28.6870,-47.3280,34.8400
3.5695,0.0790,0.0070,1.1110,16.0150,25.4200,-50.9620,34.6900
3.5818,0.0270,-0.0060,1.1400,16.4120,18.5650,-52.1070,34.6900
3.5889,0.0280,-0.0080,1.1280,17.8930,15.6340,-52.3210,34.7400
3.6010,0.0510,-0.0180,1.1520,18.0920,17.2820,-51.3280,34.7900
3.6131,0.0610,-0.0440,1.1700,21.1150,21.2670,-51.3590,34.6500
3.6199,0.0600,-0.0250,1.1440,20.4580,30.1830,-50.8240,34.7900
3.6321,0.0010,-0.0170,1.1300,17.3130,28.3360,-49.7400,34.6900
3.6389,-0.0140,-0.0200,1.1480,16.7180,21.5880,-48.8700,34.7400
3.6509,-0.0180,-0.0100,1.1410,16.6560,23.5730,-45.3440,34.6900
3.6631,-0.0190,0.0010,1.1520,15.6180,22.3820,-41.7860,34.7900
3.6699,0.0000,0.0220,1.1470,14.8090,25.6950,-37.5270,34.8400
3.6822,0.0110,0.0350,1.1380,13.6180,30.6260,-32.6560,34.7900
3.6892,0.0470,0.0560,1.1390,13.1600,33.2210,-28.6260,34.6900
3.7013,0.0890,0.0560,1.1130,11.5730,44.2440,-24.6110,34.7400
3.7071,0.0920,0.0800,1.1000,7.8470,54.6870,-21.0230,34.7900
3.7207,0.1220,0.1020,1.0870,1.9080,61.3590,-18.8850,34.6500
3.7327,0.1300,0.0920,1.0820,-0.9010,63.4660,-21.1760,34.7400
3.7398,0.1130,0.0640,1.0950,1.6950,59.0990,-28.1530,34.7900
3.7521,0.0740,0.0460,1.1050,4.6110,50.1980,-36.2600,34.6500
3.7592,0.0380,0.0240,1.1460,6.9310,37.2060,-43.8320,34.6500
3.7713,0.0230,0.0220,1.1650,9.5420,25.8930,-50.4120,34.7900
3.7785,-0.0030,0.0280,1.1720,12.1830,19.5730,-54.3210,34.6500
3.7906,-0.0360,0.0350,1.1550,13.8470,17.6790,-55.2520,34.7900
3.8029,-0.0730,0.0400,1.1380,13.0230,12.7790,-54.0760,34.6000
3.8098,-0.0580,0.0500,1.1270,11.8320,14.4730,-50.2900,34.6500
3.8219,-0.0390,0.0700,1.1340,10.2440,19.5880,-45.3890,34.7900
3.8290,-0.0010,0.0770,1.1250,8.6110,22.3970,-42.5190,34.7400
3.8407,0.0090,0.0820,1.1320,7.4050,24.5190,-40.1070,34.7400
3.8529,0.0340,0.0900,1.1110,6.4890,28.8850,-38.2600,34.6900
3.8602,0.0380,0.0960,1.1010,3.8170,32.5650,-35.6950,34.6500
3.8726,0.0480,0.0990,1.0710,1.0080,35.3130,-34.7480,34.6900
3.8797,0.0540,0.1300,1.0930,-4.7020,44.3970,-32.6560,34.7900
3.8918,0.0570,0.0920,1.0430,-0.4270,37.4810,-34.1370,34.6500
3.8987,0.0530,0.0730,1.0790,-0.1220,38.2750,-33.7250,34.6900
3.9108,0.0830,0.0760,1.1160,-0.8700,37.6640,-35.4350,34.6900
3.9229,0.0690,0.0730,1.1320,-0.3210,40.7790,-36.6410,34.6500
3.9298,0.0650,0.0750,1.1740,-0.1370,41.8780,-38.8550,34.6900
3.9422,0.0550,0.0710,1.2040,1.4350,39.9690,-42.9620,34.7900
3.9493,0.0460,0.0660,1.1750,3.7710,37.0990,-47.8930,34.7400
3.9615,-0.0020,0.0660,1.1360,3.8780,31.2980,-52.9470,34.6900
3.9687,-0.0640,0.0630,1.1190,4.5340,18.6410,-56.5340,34.8400
3.9809,-0.0610,0.0700,1.0950,4.8550,11.2210,-58.1370,34.6500
3.9931,-0.0630,0.0570,1.0890,4.0760,12.9770,-57.5110,34.6900
