Time,AX,AY,AZ,GX,GY,GZ,T
0.0000,0.0710,-0.2050,1.1560,1.1910,25.6640,-44.2140,35.3100
0.0005,0.0660,-0.2070,1.1370,1.0840,24.4270,-45.1300,35.3100
0.0010,0.0550,-0.2060,1.1390,0.4730,23.8630,-44.4890,35.2600
0.0015,0.0640,-0.1990,1.1290,-0.6870,25.6180,-42.8090,35.3100
0.0019,0.0900,-0.1940,1.1250,-1.7710,29.8780,-40.9470,35.3500
0.0023,0.1050,-0.1950,1.1370,-1.0840,31.1150,-41.3740,35.2600
0.0027,0.1050,-0.1920,1.1470,-0.6870,30.0460,-42.7330,35.3100
0.0031,0.0970,-0.1920,1.1310,-0.0150,30.9010,-43.9390,35.3100
0.0035,0.0760,-0.1860,1.1390,0.0460,28.8400,-45.3590,35.2600
0.0042,0.0730,-0.1800,1.1450,-0.9920,27.7710,-45.9850,35.3100
0.0046,0.0760,-0.1800,1.1490,-1.5730,29.4200,-46.0310,35.2600
0.0051,0.0410,-0.1710,1.1370,-2.5340,29.8020,-46.2440,35.3500
0.0055,0.0170,-0.1740,1.1430,-4.6410,26.7790,-46.3210,35.3100
0.0060,0.0160,-0.1910,1.1800,-4.8550,23.0690,-46.5650,35.3100
0.0064,0.0190,-0.2080,1.2000,-3.5570,22.8550,-46.7480,35.3500
0.0068,0.0190,-0.2290,1.2200,-1.6640,19.7100,-46.9620,35.3100
0.0072,0.0230,-0.2430,1.2050,-0.6560,21.7400,-46.1830,35.3500
0.0075,0.0120,-0.2400,1.2100,0.2290,25.5730,-44.6720,35.3500
0.0079,0.0080,-0.2300,1.2040,0.8400,29.9690,-43.0080,35.3100
0.0082,0.0000,-0.2320,1.1910,1.5270,35.4200,-40.8400,35.3500
0.0087,-0.0040,-0.2190,1.1730,-0.1980,26.6720,-40.9770,35.2600
0.0093,0.0310,-0.2100,1.1660,-0.6870,26.2900,-40.8550,35.2100
0.0097,0.0570,-0.2050,1.2040,-0.5500,26.5950,-41.7250,35.3500
0.0101,0.0560,-0.2120,1.2150,0.7630,25.6490,-42.8700,35.4500
0.0105,0.0320,-0.2120,1.1940,1.7400,24.4890,-43.8630,35.3100
0.0108,0.0350,-0.2430,1.1870,2.3050,19.9080,-43.6030,35.2600
0.0111,0.0310,-0.2140,1.2170,2.6720,25.7860,-42.2440,35.2600
0.0115,0.0300,-0.2140,1.2000,3.1760,28.4120,-41.3590,35.3100
0.0118,0.0290,-0.2100,1.1640,2.6260,30.5800,-40.3970,35.2600
0.0121,0.0270,-0.2030,1.1750,0.1680,32.5340,-39.2820,35.3100
0.0125,0.0180,-0.2140,1.1710,-0.6870,33.5110,-39.8320,35.4000
0.0128,-0.0080,-0.2030,1.1770,-2.9770,32.9770,-38.7940,35.3500
0.0137,-0.0120,-0.2330,1.1720,-4.1070,28.0310,-39.2060,35.3100
0.0142,-0.0520,-0.2260,1.1940,-4.1220,28.4120,-39.0380,35.4000
0.0145,-0.0550,-0.2430,1.1840,-7.5570,25.7860,-36.9010,35.2600
0.0149,-0.0080,-0.2200,1.2090,-3.1760,22.7330,-33.2520,35.3100
0.0153,0.0110,-0.2200,1.2410,-0.1370,16.4270,-35.1150,35.3100
0.0157,0.0370,-0.2000,1.1900,1.5880,17.6340,-35.0530,35.2600
0.0161,0.0220,-0.1850,1.1690,0.8090,15.9540,-34.9620,35.2100
0.0165,0.0800,-0.1770,1.1100,3.1150,15.3890,-37.2520,35.2100
0.0170,0.0690,-0.1330,1.1560,-0.9470,18.9920,-36.5950,35.3500
0.0175,0.0330,-0.2010,1.1380,0.1370,16.3360,-38.9310,35.3100
0.0178,0.0210,-0.1790,1.1600,-0.2440,11.8170,-39.0530,35.2600
0.0181,0.0190,-0.1670,1.1670,-3.6030,11.6340,-38.9010,35.3500
0.0184,0.0780,-0.1970,1.1580,-1.8320,15.5570,-41.4050,35.3100
0.0191,0.0450,-0.1840,1.2860,-0.2900,18.4730,-40.8400,35.2600
0.0195,0.0060,-0.2190,1.2980,4.9310,17.9390,-42.3510,35.3500
0.0198,-0.0100,-0.2380,1.2790,9.3280,20.8700,-41.0080,35.3100
0.0201,-0.0410,-0.2130,1.2320,10.5800,21.2370,-38.7630,35.2600
0.0204,-0.0490,-0.1890,1.1720,8.0760,19.9240,-36.9620,35.3500
0.0207,-0.0290,-0.1820,1.1600,3.5880,14.1370,-36.1680,35.3100
0.0211,0.0140,-0.1860,1.2260,2.7790,8.7480,-36.5950,35.2600
0.0214,0.0670,-0.1980,1.2550,6.0310,10.8400,-38.2440,35.2600
0.0217,0.0730,-0.1910,1.2520,8.4270,18.5040,-39.6340,35.3100
0.0220,0.0300,-0.1880,1.2400,10.1220,16.3210,-40.8400,35.4500
0.0224,0.0370,-0.1810,1.2450,10.4580,14.6720,-41.0530,35.3500
0.0227,0.0350,-0.1740,1.2850,11.4960,13.7710,-41.8630,35.4000
0.0230,0.0300,-0.1700,1.2840,14.6870,14.6720,-42.4120,35.3500
0.0232,0.0280,-0.1610,1.2930,18.0460,11.2370,-42.9470,35.3500
0.0235,0.0370,-0.1580,1.2810,19.2670,11.0380,-42.9920,35.3100
0.0238,0.0380,-0.1440,1.2510,17.6640,14.3820,-41.9540,35.3500
0.0241,0.0500,-0.1420,1.2250,14.6260,14.0460,-41.9080,35.2600
0.0244,0.0580,-0.1390,1.2370,11.1760,12.5650,-42.4430,35.3100
0.0246,0.0570,-0.1440,1.2770,10.1680,10.9310,-42.7480,35.2600
0.0249,0.0710,-0.1520,1.2910,12.7180,11.1150,-44.2440,35.3100
0.0252,0.0630,-0.1430,1.2940,15.0230,15.9240,-45.5420,35.3500
0.0257,0.0070,-0.1240,1.2630,15.3130,15.1760,-46.5650,35.4500
0.0259,-0.0080,-0.1150,1.2330,17.6340,15.0690,-47.3130,35.3100
0.0262,-0.0310,-0.1000,1.2030,18.4730,12.4270,-48.1980,35.3100
0.0265,-0.0460,-0.1090,1.1710,17.6490,7.6180,-48.9920,35.3500
0.0268,-0.0530,-0.1130,1.1660,14.4730,0.2440,-49.5110,35.3100
0.0271,-0.0340,-0.1130,1.1850,11.6340,-6.5040,-49.2370,35.2600
0.0273,-0.0080,-0.1050,1.2270,9.1910,-1.9390,-46.7940,35.3500
0.0276,-0.0150,-0.1090,1.2180,9.6950,-0.7330,-43.2520,35.3100
0.0279,0.0090,-0.1200,1.2730,11.1300,0.8700,-38.9770,35.3100
0.0282,0.0720,-0.1130,1.2660,11.5420,4.7180,-36.3050,35.3500
0.0284,0.1290,-0.1130,1.2630,15.4050,6.7330,-35.8170,35.2100
0.0287,0.1870,-0.1030,1.2430,15.1910,14.4120,-36.0610,35.3500
0.0290,0.1830,-0.0980,1.2260,16.9620,18.8400,-37.8320,35.3500
0.0292,0.1970,-0.1030,1.2070,15.4050,16.9160,-42.7940,35.2100
0.0295,0.1620,-0.1050,1.2120,14.5340,11.3590,-49.0840,35.3500
0.0297,0.1120,-0.1220,1.2350,14.9470,6.9770,-54.4270,35.3500
0.0300,0.0670,-0.1420,1.2440,14.4120,4.8700,-57.5730,35.3100
0.0302,-0.0040,-0.1620,1.2520,16.6870,4.5040,-55.9080,35.3500
0.0305,-0.0360,-0.1660,1.2550,17.8320,8.2750,-52.1980,35.2600
0.0307,-0.0760,-0.1720,1.2320,19.0080,7.2060,-46.1530,35.3100
0.0309,-0.0270,-0.1660,1.2630,19.7100,4.1830,-40.9160,35.3500
0.0312,0.0320,-0.1550,1.2630,23.0380,11.8320,-36.4430,35.3500
0.0314,0.0560,-0.1320,1.2300,24.7480,18.7630,-33.2370,35.3100
0.0317,0.0620,-0.0940,1.1710,24.1220,23.3440,-31.6490,35.2600
0.0319,0.0830,-0.0690,1.1250,22.7180,21.2370,-31.1300,35.2600
0.0322,0.1190,-0.0390,1.1560,19.6340,23.0080,-30.6260,35.3100
0.0324,0.1560,-0.0280,1.1420,20.5500,23.2520,-31.2520,35.2600
0.0327,0.1900,-0.0080,1.1330,16.9620,27.5270,-31.5570,35.3500
0.0329,0.2220,0.0100,1.1240,15.0380,32.6260,-32.8400,35.2100
0.0332,0.1840,0.0000,1.1350,13.7560,35.4050,-34.9010,35.2600
0.0334,0.1510,-0.0010,1.1660,10.7940,37.7400,-33.9390,35.3100
0.0338,0.1410,-0.0380,1.1550,12.4890,32.9920,-34.8240,35.3100
0.0340,0.1600,-0.0360,1.1680,12.4580,27.8630,-36.5950,35.2600
0.0343,0.1450,-0.0200,1.1820,12.0760,29.1150,-38.1370,35.3100
0.0345,0.1450,0.0020,1.1800,12.3970,26.3510,-39.2060,35.3100
0.0347,0.1230,0.0190,1.1540,12.4270,25.4200,-38.8700,35.2600
0.0350,0.1170,0.0230,1.1570,10.6720,22.8850,-39.4660,35.4000
0.0352,0.1680,0.0390,1.1570,8.1070,28.6560,-38.3660,35.3100
0.0354,0.1610,0.0170,1.1620,4.9470,31.5420,-38.1070,35.3500
0.0355,0.1330,-0.0030,1.1690,2.6560,34.6260,-38.6410,35.3100
0.0356,0.1160,-0.0100,1.1570,1.2820,33.3130,-38.2750,35.3100
0.0358,0.1170,-0.0060,1.1700,-0.1070,36.2290,-37.2520,35.2600
0.0359,0.1490,-0.0210,1.2210,1.4350,38.8850,-39.0690,35.3100
0.0361,0.1200,-0.0380,1.2220,3.5880,42.9920,-41.8170,35.3100
0.0363,0.0680,-0.0480,1.2290,5.0840,39.8780,-44.8550,35.2600
0.0365,0.0380,-0.0550,1.2540,7.9080,32.2290,-48.3510,35.3100
0.0367,-0.0100,-0.0660,1.2510,11.6790,23.6340,-50.7940,35.3500
0.0370,-0.0220,-0.0670,1.2090,11.9850,20.5800,-50.8240,35.2600
0.0372,-0.0300,-0.0430,1.1980,10.5190,17.6640,-48.6110,35.4000
0.0374,-0.0210,0.0030,1.1800,7.6180,17.6180,-45.4200,35.2600
0.0376,-0.0220,-0.0070,1.1840,7.2210,18.8090,-42.3970,35.3500
0.0379,0.0230,-0.0120,1.1480,5.9240,28.7480,-38.3970,35.3100
0.0381,0.0060,-0.0200,1.1410,6.3510,29.7860,-36.2140,35.2600
0.0383,0.0620,-0.0100,1.1440,5.5880,27.9540,-35.7100,35.2600
0.0385,0.1200,0.0090,1.1330,4.7630,30.0760,-36.4270,35.3100
0.0388,0.1500,-0.0140,1.1950,4.7630,24.0460,-41.4050,35.2600
0.0390,0.1520,-0.0010,1.2170,7.6340,25.3890,-45.3130,35.3500
0.0392,0.1190,-0.0080,1.2040,9.8020,18.9310,-48.8550,35.3100
0.0394,0.1160,-0.0070,1.1680,8.8850,16.1680,-51.0840,35.3500
0.0397,0.1010,0.0030,1.1570,7.6030,14.7330,-50.4120,35.2600
0.0399,0.0930,0.0020,1.1120,5.4500,9.5570,-49.7560,35.3500
0.0401,0.1080,-0.0050,1.1190,3.3440,12.3660,-48.5800,35.3500
0.0403,0.0990,0.0030,1.1070,1.1760,18.1530,-46.6410,35.3500
0.0405,0.1090,-0.0020,1.1210,2.0310,19.5880,-47.1450,35.2100
0.0407,0.0800,0.0020,1.1440,4.2290,20.7790,-47.2670,35.2600
0.0409,0.1010,-0.0440,1.1360,8.5950,21.1600,-49.4050,35.3100
0.0411,0.0840,-0.0840,1.1280,14.4730,18.1370,-54.2750,35.2600
0.0414,0.0720,-0.0360,1.1610,11.7400,17.2060,-54.7480,35.3500
0.0416,0.0540,-0.0330,1.1800,9.9080,12.0460,-56.4430,35.4000
0.0418,0.0480,-0.0250,1.1930,9.1150,13.9850,-56.6720,35.3100
0.0421,0.0540,-0.0190,1.1630,9.7710,16.9470,-55.5570,35.3500
0.0423,0.0420,-0.0200,1.1710,8.7330,31.0080,-51.5570,35.3100
0.0425,0.0140,-0.0200,1.1520,8.0920,39.4660,-46.5340,35.3500
0.0427,0.0190,-0.0220,1.1510,7.9390,48.0610,-41.6790,35.2600
0.0429,0.0230,-0.0390,1.1370,9.7710,51.9080,-38.6720,35.3100
0.0431,0.0170,-0.0060,1.1230,8.5650,51.6340,-37.9240,35.2100
0.0433,-0.0010,0.0170,1.1160,7.4500,48.9160,-37.4960,35.2600
0.0435,0.0180,0.0270,1.1090,6.9620,38.0920,-40.1070,35.3100
0.0437,0.0350,0.0300,1.1150,6.4890,32.5950,-43.0230,35.2600
0.0439,0.0430,0.0380,1.1180,5.7710,26.3820,-46.3210,35.2600
0.0441,0.0700,0.0530,1.1210,4.6870,24.3820,-49.4810,35.4000
0.0443,0.0330,0.0840,1.1290,4.3510,23.9240,-51.6340,35.3500
0.0445,0.0030,0.0940,1.1250,2.9470,24.1370,-51.9240,35.3500
0.0447,-0.0020,0.0970,1.1230,2.4580,26.0310,-51.1600,35.3100
0.0449,-0.0030,0.0880,1.1150,2.3360,23.8780,-51.3440,35.2600
0.0451,-0.0100,0.0690,1.0780,2.5040,19.8170,-52.4270,35.3500
0.0453,0.0010,0.0550,1.0750,0.0310,16.2290,-53.1450,35.3100
0.0455,0.0420,0.0420,1.0990,-0.4120,13.7250,-55.1600,35.2600
0.0457,0.0620,0.0390,1.0990,-1.8470,15.2980,-56.5190,35.2600
0.0459,0.0660,0.0510,1.1190,-4.0610,19.4200,-57.3130,35.3100
0.0461,0.0000,-0.0100,1.1770,-2.3050,2.0760,-52.6720,35.2600
0.0463,-0.0820,-0.0150,1.2070,-0.7180,1.2060,-50.5040,35.2600
0.0465,-0.0510,-0.0200,1.2180,2.1220,2.6560,-49.0080,35.3100
0.0467,-0.0400,-0.0060,1.2130,4.6410,4.0760,-46.8090,35.3500
0.0468,-0.0600,0.0190,1.1760,3.5110,9.0230,-42.9920,35.2600
0.0486,-0.0170,0.0300,1.1690,3.6790,5.6180,-41.9080,35.3100
0.0555,0.0110,0.0250,1.1450,3.0380,5.7100,-41.5570,35.3500
0.0677,0.0300,0.0190,1.1580,2.4120,5.8630,-41.5110,35.3500
0.0751,0.0420,0.0300,1.1570,2.8240,6.5040,-41.8780,35.3100
0.0873,0.0630,0.0440,1.1720,2.2140,9.1760,-41.2060,35.2600
0.0999,0.0370,0.0420,1.1510,2.4730,10.9620,-40.1370,35.2600
0.1068,0.0530,0.0510,1.1550,3.8470,15.3590,-39.6490,35.3100
0.1191,0.0560,0.0470,1.1340,4.2750,15.7400,-40.3210,35.3500
0.1259,0.0510,0.0460,1.1220,3.7400,15.7860,-41.9390,35.3100
0.1386,0.0320,0.0440,1.0990,3.2210,11.0840,-44.0000,35.2600
0.1456,0.0290,0.0270,1.0830,2.3970,8.3510,-45.7250,35.2600
0.1578,0.0280,0.0180,1.1030,1.1760,2.6260,-47.0380,35.3100
0.1652,0.0270,0.0160,1.1300,1.1450,1.8020,-47.1600,35.3100
0.1775,0.0160,0.0260,1.1380,1.9240,3.6950,-46.2140,35.3500
0.1899,0.0170,0.0330,1.1500,2.6110,6.3970,-44.4890,35.3100
0.1971,0.0330,0.0390,1.1390,2.9920,7.8930,-42.6560,35.3500
0.2097,0.0600,0.0440,1.1300,2.6720,10.3360,-41.3890,35.3500
0.2165,0.0980,0.0560,1.1530,3.0230,11.7710,-41.0230,35.3100
0.2286,0.1020,0.0760,1.1910,3.4050,12.5950,-40.5950,35.3100
0.2356,0.1280,0.0650,1.1160,2.5800,21.1300,-41.0690,35.2600
0.2484,0.1440,0.0810,1.1440,1.2820,19.1760,-41.3890,35.3100
0.2555,0.1920,0.0800,1.1510,1.9690,23.0380,-43.7100,35.3500
0.2673,0.1760,0.0970,1.1320,1.1300,31.4500,-44.8700,35.3500
0.2796,0.1440,0.1030,1.1160,-0.7330,33.1450,-46.1070,35.3100
0.2868,0.1250,0.1170,1.1150,-1.9850,32.0610,-47.0840,35.2600
0.2989,0.1080,0.1140,1.1160,-2.7790,32.4430,-47.2670,35.3500
0.3061,0.0720,0.1180,1.1180,-4.9470,33.5570,-46.9310,35.3100
0.3181,0.0740,0.1010,1.1340,-5.4200,38.8550,-46.1370,35.3500
0.3240,0.0410,0.0670,1.1500,-4.8400,35.8320,-45.4050,35.2600
0.3373,0.0390,0.0750,1.1120,-5.5880,38.0920,-45.1760,35.4000
0.3496,0.0010,0.0630,1.1420,-5.2060,30.5950,-44.5340,35.3500
0.3565,0.0390,0.0670,1.1460,-3.6640,27.5880,-44.1370,35.2600
0.3687,0.0470,0.0650,1.1330,-3.0840,26.4120,-44.4270,35.3100
0.3762,0.0460,0.0520,1.1200,-3.8020,25.5270,-44.8550,35.3500
0.3883,0.0640,0.0430,1.1390,-3.3740,21.4200,-46.0000,35.3500
0.4002,0.0730,0.0450,1.1870,-1.6180,21.3890,-46.0760,35.3100
0.4072,0.0450,0.0400,1.1770,-1.2370,28.4890,-43.3740,35.3500
0.4192,0.0420,0.0490,1.1800,-1.8930,43.8170,-35.7860,35.3500
0.4265,0.0040,0.0450,1.1440,-3.9850,57.7400,-27.5730,35.4000
0.4386,0.0150,0.0530,1.1450,-5.8320,61.4350,-22.3360,35.2600
0.4455,0.0160,0.0690,1.1770,-4.4730,66.1070,-20.1680,35.3500
0.4580,-0.0020,0.0640,1.1690,-1.9240,61.2060,-22.1070,35.3100
0.4698,0.0050,0.0750,1.1590,-0.4270,50.9010,-27.0690,35.3500
0.4769,0.0170,0.0830,1.1300,0.0760,39.0380,-34.4580,35.2600
0.4891,0.0190,0.0950,1.1310,-1.2670,22.8550,-43.4200,35.3100
0.4964,0.0240,0.1010,1.1560,-2.0150,12.6260,-50.7940,35.3500
0.5084,0.0220,0.0890,1.1560,-0.6110,11.9540,-56.0000,35.3500
0.5154,-0.0150,0.0870,1.1450,-0.6410,11.7860,-59.3440,35.3100
0.5276,-0.0450,0.0690,1.1770,-2.5650,8.3050,-60.2600,35.3500
0.5394,-0.0530,0.0460,1.1840,-4.2140,6.9160,-58.2900,35.3100
0.5465,-0.0460,0.0320,1.1990,-8.4120,6.1830,-54.1830,35.3100
0.5588,-0.0200,0.0230,1.2330,-9.5880,10.1980,-50.2900,35.2600
0.5657,0.0330,0.0080,1.2400,-8.0610,17.1150,-48.0150,35.2100
0.5778,0.0420,0.0090,1.2160,-6.2290,26.7630,-46.7790,35.3100
0.5899,0.0380,0.0090,1.1840,-4.5500,32.2600,-46.7480,35.3500
0.5973,0.0170,0.0290,1.1580,-4.5950,31.4200,-47.8930,35.4000
0.6093,-0.0010,0.0490,1.1600,-4.1220,26.2600,-49.9390,35.3100
0.6159,0.0150,0.0580,1.1950,-0.3210,23.2670,-51.8780,35.3500
0.6282,-0.0130,0.0820,1.1620,-2.1680,21.8630,-52.6260,35.3100
0.6353,-0.0180,0.0930,1.1570,-4.5040,18.0150,-53.1760,35.4000
0.6475,-0.0280,0.0940,1.1390,-4.8240,14.1980,-54.0150,35.3500
0.6597,-0.0520,0.0820,1.1180,-7.2980,9.2210,-54.1680,35.3100
0.6667,-0.0330,0.0620,1.1420,-8.7180,5.5570,-52.7330,35.3100
0.6788,-0.0040,0.0510,1.1820,-8.8400,8.3510,-50.5040,35.3500
0.6855,0.0310,0.0370,1.2060,-6.3970,14.9470,-48.8090,35.3100
0.6979,0.0030,0.0390,1.2100,-6.5650,19.1300,-47.7400,35.3100
0.7100,-0.0050,0.0570,1.2000,-7.0840,22.0610,-45.9540,35.3500
0.7173,0.0020,0.0830,1.1590,-8.2440,24.1070,-45.5270,35.4000
0.7295,-0.0160,0.0890,1.1520,-10.0000,22.1530,-46.1980,35.3100
0.7364,0.0080,0.0890,1.1270,-9.9690,18.2600,-48.6720,35.3500
0.7484,-0.0150,0.0870,1.1090,-11.0990,17.2210,-51.0230,35.4000
0.7603,-0.0190,0.0870,1.1480,-12.6720,11.1600,-53.6030,35.4000
0.7674,-0.0200,0.0980,1.1840,-12.1530,7.6490,-55.4050,35.3500
0.7794,-0.0270,0.0980,1.1840,-11.9540,7.3590,-55.7250,35.3100
0.7861,-0.0410,0.1110,1.1720,-13.0530,6.6870,-55.5730,35.4000
0.7983,-0.0570,0.0980,1.1530,-14.6260,4.2290,-54.8550,35.3500
0.8102,-0.0400,0.0670,1.1340,-16.8550,-0.8850,-54.1980,35.4000
0.8170,0.0230,0.0290,1.1810,-18.8850,-6.2440,-54.6260,35.3500
0.8290,0.0670,0.0100,1.2150,-17.9390,-3.6640,-55.4960,35.3500
0.8357,0.0730,0.0000,1.2300,-15.7250,0.8850,-56.1370,35.3100
0.8480,0.0610,-0.0010,1.2100,-14.3660,4.8550,-56.3660,35.3500
0.8550,0.0570,-0.0040,1.1990,-13.8020,8.1070,-55.9390,35.2600
0.8670,0.0420,-0.0180,1.2000,-10.6870,10.5950,-55.5730,35.2100
0.8795,0.0120,-0.0080,1.1770,-11.4050,13.9540,-53.2980,35.3500
0.8861,-0.0030,-0.0160,1.1820,-11.0080,13.7100,-51.0080,35.2600
0.8980,0.0140,-0.0040,1.1850,-9.9080,14.8850,-50.5650,35.3100
0.9101,-0.0150,0.0000,1.1780,-9.2060,20.4270,-48.6720,35.3500
0.9171,-0.0420,0.0030,1.1830,-9.0080,17.8780,-47.7100,35.3500
0.9292,-0.0370,0.0040,1.1730,-9.0080,17.3280,-47.1450,35.3100
0.9361,-0.0450,-0.0060,1.1700,-8.9770,13.8470,-47.9850,35.3500
0.9481,-0.0350,-0.0140,1.1740,-9.3740,7.9390,-48.1530,35.3500
0.9536,-0.0260,-0.0190,1.1980,-10.3510,4.2140,-48.5190,35.3100
0.9670,0.0050,-0.0180,1.2300,-9.1450,5.5270,-48.3820,35.3500
0.9795,0.0050,-0.0150,1.2230,-9.3280,8.0920,-46.6870,35.2600
0.9861,-0.0010,-0.0140,1.2420,-8.8400,11.0530,-43.7560,35.3500
0.9985,0.0190,-0.0190,1.2480,-6.1830,15.2980,-40.8240,35.3500
1.0052,0.0340,-0.0250,1.2400,-4.9310,21.2060,-38.1680,35.3100
1.0172,0.0430,-0.0270,1.2160,-4.3970,24.3970,-37.0530,35.3100
1.0293,0.0550,-0.0100,1.2070,-5.7860,27.4050,-36.7180,35.2600
1.0362,0.0630,-0.0110,1.2230,-6.7940,19.4500,-37.6340,35.4000
1.0483,0.0880,-0.0130,1.1950,-6.4120,20.3360,-38.8400,35.3500
1.0553,0.0970,-0.0120,1.2150,-6.6720,20.1370,-41.2060,35.2600
1.0672,0.0760,-0.0010,1.1960,-7.1600,19.3440,-43.0840,35.2100
1.0797,0.0560,0.0000,1.1740,-6.8400,19.3440,-44.3360,35.3100
1.0867,0.0300,0.0060,1.1610,-7.5880,18.3050,-44.9770,35.2600
1.0989,0.0260,0.0100,1.1670,-8.7790,16.5040,-45.5270,35.4000
1.1056,0.0260,-0.0210,1.2130,-6.9310,12.3510,-46.5650,35.3500
1.1177,0.0460,-0.0400,1.2360,-5.2980,15.1600,-45.6640,35.2600
1.1301,0.0550,-0.0600,1.2430,-3.2820,19.7400,-44.3820,35.3100
1.1370,0.0560,-0.0470,1.2250,-1.9540,20.8400,-43.5270,35.3100
1.1492,0.0400,-0.0230,1.1850,-3.6030,22.6560,-42.2750,35.2600
1.1559,0.0330,-0.0010,1.1700,-4.0760,22.4270,-41.3740,35.3100
1.1681,0.0350,0.0060,1.1580,-6.2140,21.8930,-40.4580,35.3500
1.1737,0.0560,0.0100,1.1780,-7.0530,18.7020,-40.8550,35.2600
1.1872,0.0860,-0.0050,1.2040,-6.9310,17.4960,-42.2600,35.3100
1.1996,0.0690,-0.0080,1.2110,-6.1680,18.6110,-43.9240,35.2600
1.2062,0.0500,-0.0200,1.2130,-4.9920,18.3820,-44.1680,35.3500
1.2185,0.0560,-0.0060,1.2080,-5.1760,19.5730,-43.4660,35.3100
1.2252,0.0310,0.0060,1.1980,-4.3660,21.8320,-42.9310,35.2600
1.2375,0.0210,0.0030,1.1980,-4.3510,17.4960,-42.3660,35.3500
1.2496,0.0450,-0.0050,1.1990,-4.7940,18.3050,-42.1220,35.4000
1.2569,0.0450,-0.0090,1.1960,-4.7180,16.7630,-43.4350,35.3500
1.2687,0.0320,-0.0390,1.1880,-2.5500,14.0460,-46.3050,35.3500
1.2759,0.0370,-0.0310,1.1900,-4.8090,12.3510,-46.5650,35.3100
1.2877,0.0270,-0.0250,1.1780,-5.8780,11.3130,-46.2900,35.3500
1.2999,0.0090,-0.0200,1.1990,-6.6560,11.9540,-44.4270,35.2600
1.3068,0.0200,-0.0200,1.2100,-6.7330,12.5190,-42.0920,35.3100
1.3189,0.0260,-0.0170,1.2010,-6.9470,17.6640,-39.1450,35.2600
1.3258,0.0420,-0.0130,1.2200,-7.0080,17.8930,-37.4350,35.3500
1.3381,0.0770,-0.0250,1.2180,-5.2980,19.0080,-38.0760,35.3100
1.3502,0.0810,-0.0290,1.2060,-5.0530,20.2750,-39.5270,35.3500
1.3569,0.0470,-0.0260,1.1890,-3.8020,18.1680,-40.8550,35.3100
1.3693,0.0390,-0.0420,1.2080,-3.7400,12.0150,-41.4350,35.4000
1.3760,0.0680,-0.0570,1.2310,-2.7330,7.9540,-42.1680,35.3500
1.3885,0.1160,-0.0640,1.2510,-0.7020,9.6640,-42.7180,35.3100
1.3955,0.0840,-0.0160,1.2730,1.5270,11.6340,-43.8320,35.4000
1.4076,0.0990,-0.0360,1.2110,0.2140,18.3820,-42.9620,35.3500
1.4198,0.0570,-0.0450,1.2000,-0.3050,14.3820,-42.5340,35.4000
1.4264,0.0800,-0.0450,1.1810,1.2520,14.2750,-42.0920,35.4000
1.4387,0.0770,-0.0470,1.1670,1.8170,17.2670,-42.3820,35.3500
1.4457,0.0340,-0.0420,1.1320,0.9920,16.8700,-42.3210,35.3100
1.4579,0.0250,-0.0350,1.1280,0.4120,14.3660,-42.0000,35.4000
1.4702,0.0440,-0.0330,1.1340,1.7710,13.3590,-41.9080,35.3500
1.4770,0.0330,-0.0350,1.1270,2.9010,11.5110,-41.3890,35.4000
1.4894,0.0670,-0.0240,1.1120,1.7710,13.9690,-40.4580,35.3100
1.4966,0.0600,-0.0090,1.1060,0.0610,17.4810,-39.0530,35.2600
1.5085,0.0690,-0.0020,1.1210,-0.2290,14.3210,-39.4350,35.4000
1.5156,0.0430,-0.0030,1.1150,0.0000,14.7180,-38.8700,35.2100
1.5275,0.0670,-0.0010,1.1090,-1.4960,12.1220,-38.2440,35.2600
1.5399,0.1050,0.0020,1.1110,-2.6260,12.8400,-38.2750,35.3100
1.5472,0.0900,0.0080,1.1150,-3.4960,8.0760,-38.6260,35.4000
1.5592,0.1120,0.0150,1.1580,-2.0760,12.5800,-39.0080,35.3500
1.5662,0.1140,0.0230,1.1370,-3.0230,13.1910,-38.7020,35.3100
1.5784,0.0960,0.0230,1.1600,-2.5800,17.1150,-38.3820,35.2600
1.5841,0.0950,0.0140,1.1180,-2.5040,18.0920,-38.2750,35.3500
1.5976,0.0930,0.0050,1.1000,-4.7630,13.4960,-39.1300,35.4000
1.6096,0.1290,0.0000,1.1120,-6.0920,10.6870,-39.9240,35.3500
1.6167,0.1750,0.0110,1.1260,-5.4050,10.9470,-42.0920,35.2600
1.6288,0.1390,0.0180,1.1060,-6.8550,14.4730,-43.5570,35.3100
1.6359,0.1040,0.0120,1.1170,-8.9920,9.9390,-43.7100,35.3500
1.6481,0.1430,0.0070,1.1330,-10.0460,13.0990,-42.2140,35.3500
1.6603,0.1650,0.0170,1.1500,-6.4580,16.3210,-42.6110,35.3100
1.6673,0.1650,0.0060,1.1240,-11.6030,20.2900,-43.0840,35.3500
1.6794,0.1510,0.0050,1.1280,-14.0150,23.1450,-42.8090,35.2600
1.6861,0.1400,-0.0080,1.1360,-13.6640,21.5570,-43.8320,35.4000
1.6984,0.1270,-0.0470,1.1290,-9.0840,16.9160,-45.8470,35.3500
1.7103,0.1370,-0.0460,1.1820,-10.6870,13.3440,-47.9080,35.3500
1.7172,0.1630,-0.0460,1.1830,-11.0380,12.9920,-49.8320,35.3100
1.7294,0.1370,-0.0620,1.2080,-9.3740,17.4200,-49.3740,35.3500
1.7361,0.1040,-0.0730,1.1770,-7.3130,18.6870,-49.2520,35.3500
1.7484,0.0900,-0.0570,1.1620,-7.7860,21.1910,-46.7790,35.3100
1.7603,0.0960,-0.0550,1.1580,-8.2600,20.9620,-43.7710,35.3500
1.7674,0.1170,-0.0450,1.1430,-8.4890,26.5950,-41.2670,35.3100
1.7792,0.0960,-0.0280,1.1160,-10.2600,27.8930,-40.1830,35.2600
1.7860,0.0690,-0.0170,1.1230,-11.6180,25.5880,-39.4810,35.3500
1.7984,0.0960,-0.0270,1.1340,-11.5110,22.0150,-39.8020,35.3100
1.8102,0.1130,-0.0310,1.1370,-11.3590,18.7790,-41.7860,35.2100
1.8172,0.1260,-0.0360,1.1700,-10.3820,16.7330,-44.3970,35.3500
1.8290,0.1270,-0.0440,1.1920,-9.4500,15.9540,-46.4120,35.3100
1.8360,0.1040,-0.0560,1.1860,-9.8930,18.5040,-46.3360,35.3500
1.8482,0.0910,-0.0570,1.1770,-11.1150,18.0000,-45.4500,35.4500
1.8604,0.0920,-0.0450,1.1770,-9.7560,20.5950,-44.0920,35.2100
1.8671,0.0730,-0.0530,1.1650,-10.2290,21.2060,-42.3210,35.4000
1.8791,0.0760,-0.0610,1.1510,-11.1910,21.3890,-40.7940,35.3500
1.8859,0.0850,-0.0680,1.1490,-10.1680,19.4960,-41.5880,35.3100
1.8982,0.0840,-0.0800,1.1130,-10.9160,15.5880,-42.7020,35.3500
1.9099,0.0870,-0.0820,1.1180,-11.4200,12.6260,-43.4200,35.3500
1.9169,0.1020,-0.0810,1.1160,-11.6950,11.0990,-43.6180,35.4000
1.9288,0.1070,-0.0810,1.1120,-11.6950,12.2750,-43.6180,35.4000
1.9358,0.0910,-0.0770,1.1300,-11.4660,16.0920,-42.4890,35.3500
1.9480,0.0740,-0.0650,1.1270,-14.6410,14.6410,-41.3590,35.3100
1.9598,0.0770,-0.0760,1.1450,-12.7330,13.3740,-39.7250,35.4500
1.9670,0.1470,-0.0910,1.1400,-11.5570,15.0380,-38.9920,35.3500
1.9784,0.1550,-0.1100,1.1550,-11.4960,19.9540,-39.9390,35.4000
1.9853,0.1220,-0.0950,1.1700,-11.4810,18.6560,-41.2670,35.2600
1.9977,0.1110,-0.0930,1.1740,-9.3440,19.5570,-41.3590,35.4500
2.0095,0.0640,-0.0930,1.1620,-7.7710,20.1830,-40.1070,35.3100
2.0167,0.0680,-0.0900,1.1350,-9.4810,17.9080,-37.5110,35.3500
2.0287,0.1140,-0.0950,1.1520,-11.2520,15.1600,-35.7560,35.3500
2.0356,0.1750,-0.0930,1.1890,-9.8780,17.1300,-35.6340,35.3100
2.0477,0.1810,-0.1090,1.1550,-11.9690,15.9240,-37.4350,35.3500
2.0599,0.1900,-0.0950,1.1770,-13.1300,19.2820,-39.4660,35.4500
2.0665,0.1760,-0.1020,1.1830,-14.2750,17.4050,-42.1070,35.3100
2.0785,0.1540,-0.0990,1.1820,-14.1980,14.8400,-43.5730,35.3500
2.0853,0.1790,-0.1040,1.2020,-12.7180,15.3280,-44.8850,35.3500
2.0976,0.1760,-0.1100,1.1840,-12.1370,16.2750,-44.5950,35.3100
2.1094,0.1710,-0.1090,1.2030,-11.2060,16.2140,-45.3130,35.3500
2.1160,0.1680,-0.0920,1.2490,-12.6260,20.1830,-44.7180,35.3500
2.1282,0.1380,-0.0970,1.2340,-10.0920,24.1830,-43.8170,35.3100
2.1404,0.0980,-0.1310,1.2790,-7.3890,16.1220,-44.1370,35.4500
2.1472,0.0940,-0.1540,1.2670,-2.6560,17.7250,-42.0760,35.4000
2.1593,0.1110,-0.1520,1.2450,1.3590,18.8240,-40.0920,35.4000
2.1665,0.1670,-0.1360,1.2180,1.4660,18.0150,-39.6790,35.4500
2.1786,0.1790,-0.1060,1.1610,0.0310,25.5730,-40.2750,35.3100
2.1856,0.1590,-0.0850,1.1260,-3.5110,24.6870,-41.6950,35.4000
2.1975,0.1620,-0.0740,1.0940,-7.0230,26.8550,-43.6030,35.3500
2.2097,0.1430,-0.0770,1.0850,-11.9080,23.8320,-46.0000,35.4000
2.2164,0.1240,-0.0780,1.1390,-16.7790,20.9920,-48.1530,35.3100
2.2283,0.1250,-0.0940,1.1460,-16.1830,24.8850,-48.7480,35.3500
2.2355,0.0880,-0.0960,1.1900,-17.9240,24.2750,-48.3360,35.3100
2.2474,0.0820,-0.1130,1.2070,-14.9920,21.9690,-46.8090,35.3100
2.2596,0.0900,-0.0990,1.1990,-14.8090,24.9920,-44.5800,35.4500
2.2664,0.0540,-0.1060,1.1910,-14.1220,20.3510,-43.4960,35.3100
2.2784,0.0780,-0.1090,1.1980,-13.8780,19.2980,-42.0920,35.4000
2.2902,0.1210,-0.1100,1.1980,-13.8020,21.3590,-41.3440,35.3500
2.2973,0.1400,-0.1060,1.1740,-16.5950,24.5040,-40.7020,35.3100
2.3091,0.1460,-0.1110,1.1870,-17.0380,27.8470,-40.6410,35.4000
2.3159,0.1350,-0.1150,1.1760,-17.8630,30.3050,-41.0530,35.3500
2.3279,0.1270,-0.1100,1.1950,-17.3130,29.1910,-42.0150,35.3100
2.3401,0.1050,-0.1170,1.1940,-17.2370,25.2520,-44.0460,35.4500
2.3470,0.0860,-0.1180,1.1790,-15.8320,21.9390,-44.9920,35.3500
2.3592,0.0790,-0.1230,1.1570,-15.5270,19.7710,-44.6410,35.4000
2.3661,0.0820,-0.1280,1.1560,-17.4350,19.9540,-42.6870,35.3500
2.3778,0.1010,-0.1280,1.1660,-18.2290,21.1910,-41.7710,35.3500
2.3898,0.1130,-0.1250,1.2060,-18.5800,23.3130,-41.7400,35.3100
2.3969,0.1020,-0.1340,1.1960,-17.1300,25.7710,-41.9850,35.3500
2.4088,0.0900,-0.1300,1.1840,-17.7250,24.7790,-41.9540,35.2600
2.4158,0.0940,-0.1420,1.2220,-18.5650,20.1680,-42.0000,35.3100
2.4276,0.1330,-0.1600,1.2720,-16.0460,19.9690,-42.8850,35.2600
2.4397,0.1390,-0.1710,1.2770,-12.2440,17.6180,-44.8400,35.3500
2.4465,0.1510,-0.1680,1.2590,-10.8850,18.4430,-45.6340,35.4000
2.4585,0.1460,-0.1720,1.2620,-10.0150,22.3970,-44.8240,35.2600
2.4656,0.1260,-0.1670,1.2480,-10.0610,23.2210,-44.0150,35.3500
2.4773,0.1730,-0.2530,1.1150,-9.6950,36.1220,-41.9080,35.3100
2.4896,0.0920,-0.1660,1.2420,-17.7100,-2.8400,-42.4580,35.3500
2.4965,0.1590,-0.1680,1.2320,-18.4580,40.5340,-41.8930,35.3500
2.5084,0.0690,-0.1910,1.2710,-13.7710,18.6410,-42.9770,35.4000
2.5203,0.1020,-0.1870,1.2520,-8.1220,16.7020,-43.2670,35.2600
2.5273,0.0940,-0.1810,1.2710,-6.4270,19.3440,-43.1760,35.4000
2.5394,0.0610,-0.2140,1.3540,-8.5040,10.0150,-45.6950,35.4000
2.5466,0.0900,-0.1890,1.2060,-8.8700,25.9690,-44.0150,35.3500
2.5586,0.0650,-0.1950,1.2600,-8.3660,20.9160,-43.6030,35.3100
2.5656,0.0920,-0.2000,1.2420,-6.8850,16.6260,-42.7940,35.4500
2.5773,0.1150,-0.2020,1.2530,-7.6030,19.4350,-41.5730,35.3500
2.5897,0.1380,-0.2080,1.2590,-8.5340,20.8400,-40.7940,35.3100
2.5966,0.1520,-0.2170,1.2840,-7.3130,19.3440,-42.5040,35.4000
2.6085,0.1470,-0.2230,1.3040,-3.6180,19.6640,-44.0460,35.3500
2.6156,0.1340,-0.2180,1.2920,0.2140,21.0380,-44.4890,35.3100
2.6276,0.1340,-0.2080,1.2820,2.4120,23.0230,-43.8780,35.3500
2.6400,0.1400,-0.1990,1.2470,3.2820,28.1070,-43.0690,35.3500
2.6468,0.1210,-0.1960,1.2260,4.3970,29.4960,-43.3280,35.3100
2.6590,0.1000,-0.1870,1.1880,4.2440,29.7710,-43.0080,35.4000
2.6662,0.0850,-0.1870,1.1750,4.0760,29.8320,-42.7480,35.3500
2.6783,0.0970,-0.1770,1.1680,3.5880,28.1680,-43.2670,35.3100
2.6844,0.0940,-0.1700,1.1630,3.3740,28.1530,-43.6490,35.2600
2.6975,0.0650,-0.1620,1.1540,2.7630,28.3660,-42.9310,35.4500
2.7099,0.0600,-0.1650,1.1770,3.2060,23.1150,-43.2670,35.4000
2.7168,0.0900,-0.1700,1.1760,3.5110,23.1300,-43.0230,35.4000
2.7288,0.0990,-0.1630,1.1710,4.2750,24.8240,-43.1760,35.4500
2.7359,0.0850,-0.1670,1.1450,4.5800,22.1220,-43.6950,35.4000
2.7482,0.0940,-0.1600,1.1430,3.5110,20.9470,-43.2370,35.3500
2.7603,0.0920,-0.1570,1.1240,2.8240,23.5880,-42.7940,35.3500
2.7672,0.1010,-0.1410,1.1210,0.2290,24.7330,-42.0460,35.3100
2.7794,0.1010,-0.1500,1.1250,-1.4200,25.5420,-42.1070,35.3100
2.7864,0.0930,-0.1500,1.1360,-1.8930,24.8090,-42.0150,35.3500
2.7984,0.0940,-0.1590,1.1220,-2.4430,25.0840,-42.6110,35.3100
2.8055,0.0810,-0.1530,1.1340,-1.2370,21.5420,-44.0310,35.4500
2.8172,0.0810,-0.1580,1.1470,0.2290,17.4660,-44.7480,35.2600
2.8296,0.1110,-0.1580,1.1420,0.7180,22.0760,-44.4580,35.3100
2.8366,0.0720,-0.1500,1.1220,0.2440,22.5500,-43.4660,35.4000
2.8490,0.0790,-0.1360,1.0840,-2.4120,22.5800,-42.3970,35.3500
2.8558,0.0880,-0.1320,1.0990,-5.6640,21.3740,-42.4730,35.3100
2.8678,0.1010,-0.1450,1.1320,-6.9620,19.1150,-42.9620,35.2600
2.8802,0.1170,-0.1520,1.1520,-7.2210,20.0760,-43.6950,35.3500
2.8868,0.1000,-0.1550,1.1650,-6.5650,19.3590,-44.9470,35.4000
2.8991,0.0920,-0.1750,1.1860,-5.0530,18.7020,-45.9240,35.3500
2.9061,0.0860,-0.1910,1.1950,-3.4050,19.1760,-45.7250,35.2600
2.9181,0.0780,-0.1950,1.1910,-2.6720,20.9470,-44.7020,35.3100
2.9301,0.0910,-0.1900,1.2010,-0.9310,20.7790,-43.7710,35.3500
2.9371,0.1180,-0.1810,1.1930,-0.9010,22.3510,-43.2980,35.2600
2.9491,0.1200,-0.1650,1.1720,-2.5040,24.3660,-42.8240,35.3100
2.9563,0.1180,-0.1560,1.1720,-4.6560,24.2440,-43.0690,35.3500
2.9681,0.1080,-0.1510,1.1890,-5.6340,22.8850,-43.4660,35.3500
2.9803,0.1060,-0.1670,1.2060,-4.8090,20.8550,-44.3820,35.3100
2.9870,0.1010,-0.1850,1.2080,-3.1910,19.9540,-46.0310,35.3500
2.9994,0.0740,-0.1870,1.2380,-1.5880,20.4270,-46.0460,35.3500
3.0063,0.0760,-0.1930,1.2370,-0.3360,20.8400,-44.9310,35.3100
3.0185,0.0880,-0.1880,1.2210,-0.1370,24.9470,-42.7020,35.3500
3.0242,0.0960,-0.1800,1.2090,0.9160,29.3130,-41.6790,35.4500
3.0374,0.0710,-0.1750,1.1850,1.4200,26.9620,-41.7100,35.4000
3.0496,0.0820,-0.1840,1.1870,1.6180,24.6870,-42.1680,35.3500
3.0568,0.1050,-0.1790,1.1960,2.1680,24.4270,-42.9620,35.2600
3.0689,0.1100,-0.1730,1.1970,3.5110,24.1370,-43.9540,35.3100
3.0763,0.0870,-0.1690,1.1750,2.7790,24.2140,-43.6340,35.3500
3.0883,0.0900,-0.1640,1.1770,1.3280,23.1600,-42.8240,35.3500
3.1004,0.1050,-0.1610,1.1820,0.5800,25.4660,-42.4580,35.3100
3.1072,0.0780,-0.1670,1.1920,-0.3050,23.4200,-42.7180,35.3500
3.1194,0.0960,-0.1690,1.2000,0.9620,23.0230,-43.6030,35.3500
3.1266,0.0810,-0.1650,1.1930,1.9390,24.3820,-43.4350,35.3100
3.1388,0.0710,-0.1630,1.1810,2.9010,21.9690,-44.1680,35.4500
3.1454,0.0830,-0.1670,1.1910,3.0990,20.4430,-44.0460,35.3500
3.1577,0.0920,-0.1770,1.2050,2.6720,20.5950,-44.2140,35.4000
3.1698,0.0870,-0.1770,1.2430,5.8020,22.8400,-44.6560,35.3500
3.1771,0.0720,-0.1790,1.2180,6.9010,23.1450,-44.5800,35.3500
3.1891,0.0520,-0.1670,1.2050,5.9240,25.8020,-43.7250,35.2100
3.1961,0.0470,-0.1730,1.2030,5.0690,24.8700,-42.2290,35.3500
3.2083,0.0660,-0.1700,1.2090,4.3210,24.8700,-40.9920,35.3100
3.2143,0.0690,-0.1680,1.2120,4.4890,25.7400,-40.8700,35.3100
3.2276,0.0620,-0.1550,1.1810,3.8170,23.7400,-40.5800,35.2600
3.2394,0.0900,-0.1610,1.1820,2.9160,19.8470,-40.7790,35.4000
3.2467,0.1030,-0.1570,1.2000,2.3660,19.0230,-42.1220,35.4000
3.2589,0.1110,-0.1650,1.1940,2.4270,18.4120,-43.4810,35.3500
3.2661,0.1120,-0.1610,1.1970,2.6870,17.8780,-44.6560,35.4000
3.2780,0.0970,-0.1640,1.2020,3.4810,18.4430,-44.5500,35.3100
3.2903,0.0920,-0.1570,1.1790,4.8240,20.7480,-44.1830,35.3500
3.2972,0.0720,-0.1490,1.1570,3.9690,22.5800,-43.7560,35.4000
3.3092,0.0640,-0.1520,1.1580,4.0150,21.5730,-43.6790,35.3100
3.3162,0.0680,-0.1560,1.1640,4.8240,21.9850,-43.1300,35.3500
3.3287,0.0560,-0.1490,1.1510,6.0760,23.4200,-43.0080,35.4000
3.3355,0.0240,-0.1320,1.1080,5.4050,22.2900,-41.9390,35.3100
3.3478,0.0070,-0.1220,1.0810,3.5420,17.9540,-40.7940,35.3500
3.3600,0.0450,-0.1260,1.1090,2.4580,12.6720,-40.2750,35.3100
3.3667,0.0860,-0.1270,1.1320,3.0080,13.2370,-41.3890,35.4000
3.3791,0.0800,-0.1340,1.1290,3.1600,13.0840,-42.4120,35.2600
3.3862,0.1010,-0.1320,1.1280,2.0310,11.5730,-43.7710,35.3100
3.3983,0.1160,-0.1350,1.1310,2.1530,14.0760,-44.6110,35.4000
3.4056,0.0840,-0.1300,1.1190,1.3740,15.3890,-43.9540,35.3500
3.4180,0.0830,-0.1280,1.1500,0.4890,12.5950,-43.6640,35.4900
3.4297,0.1050,-0.1300,1.1670,0.5800,15.8020,-43.0530,35.4500
3.4365,0.1040,-0.1290,1.1760,1.0230,18.6110,-42.8550,35.3500
3.4489,0.0790,-0.1330,1.1850,1.3130,20.2140,-42.4430,35.3100
3.4562,0.0760,-0.1440,1.1670,1.2210,19.1760,-41.5420,35.2600
3.4683,0.1150,-0.1420,1.1830,1.6340,19.9240,-41.8780,35.3500
3.4802,0.1150,-0.1320,1.1920,2.1680,22.3510,-42.0310,35.3100
3.4876,0.1020,-0.1390,1.2120,4.7480,22.4430,-42.4120,35.3500
3.4995,0.1150,-0.1380,1.2110,6.3510,23.2370,-42.4120,35.2600
3.5065,0.1070,-0.1160,1.1720,6.6560,23.8780,-42.3510,35.3100
3.5187,0.1280,-0.1240,1.1670,2.8550,17.5880,-43.3740,35.3500
3.5258,0.1330,-0.1260,1.1480,4.9470,21.1450,-44.7480,35.3500
3.5379,0.1120,-0.1120,1.2040,2.6560,19.1910,-45.1450,35.3100
3.5500,0.1050,-0.1070,1.2210,1.6490,18.3660,-45.7710,35.3500
3.5573,0.0980,-0.1280,1.1980,1.8780,19.9390,-46.5950,35.3500
3.5693,0.0760,-0.1290,1.1860,1.6790,18.3050,-46.9620,35.4000
3.5764,0.0830,-0.1440,1.1870,1.9690,18.7480,-46.4120,35.3500
3.5884,0.0820,-0.1480,1.1840,2.7020,20.4120,-45.8020,35.4500
3.5953,0.0660,-0.1380,1.1810,3.5570,19.8470,-46.0150,35.4000
3.6079,0.0480,-0.1420,1.1630,4.2900,21.7250,-45.1450,35.3500
3.6198,0.0280,-0.1290,1.1550,3.0840,17.2520,-43.8020,35.3500
3.6271,0.0590,-0.1260,1.1560,2.8700,16.9310,-43.0690,35.4000
3.6391,0.0690,-0.1210,1.1590,2.0310,18.3050,-42.7180,35.2600
3.6462,0.0530,-0.1030,1.1330,1.3440,19.4500,-41.6340,35.4000
3.6581,0.0710,-0.1060,1.1430,-0.0150,19.3280,-40.9770,35.3500
3.6702,0.0910,-0.0930,1.1520,-0.3970,18.9310,-41.5570,35.3500
3.6771,0.1000,-0.1040,1.1510,-0.2600,18.9160,-42.3360,35.3100
3.6894,0.1060,-0.1030,1.1340,-0.8700,19.7100,-42.8700,35.3100
3.6963,0.0940,-0.1130,1.1470,-0.1370,18.7180,-43.0380,35.4500
3.7084,0.1050,-0.1190,1.1510,-0.0310,16.7180,-43.2370,35.3100
3.7139,0.1210,-0.1080,1.1590,-0.9010,19.4350,-42.3660,35.3500
3.7274,0.1270,-0.1160,1.1710,-1.6790,18.5950,-43.6340,35.2600
3.7396,0.1190,-0.1130,1.1900,-0.8090,19.9540,-44.1220,35.3100
3.7463,0.1220,-0.1170,1.1680,-1.2210,22.2900,-44.0150,35.3100
3.7587,0.1190,-0.1060,1.1740,-0.0610,21.0690,-44.6560,35.4500
3.7656,0.1160,-0.0860,1.1590,-0.2440,23.2520,-44.0610,35.4000
3.7777,0.0970,-0.0900,1.1810,-0.3210,22.8240,-44.1680,35.3500
3.7897,0.0930,-0.1010,1.1650,-1.0990,22.9310,-44.3820,35.3500
3.7968,0.0820,-0.1070,1.1510,-0.5950,23.7560,-44.1220,35.4000
3.8086,0.0880,-0.1080,1.1530,-2.0920,22.0150,-44.9160,35.3100
3.8158,0.0650,-0.1090,1.1500,-3.0530,22.1220,-45.0080,35.3500
3.8275,0.0580,-0.1120,1.1590,-3.4200,19.9850,-44.0310,35.4000
3.8399,0.0720,-0.1260,1.1780,-2.8090,18.8850,-43.4960,35.3500
3.8468,0.0960,-0.1240,1.1900,-1.3280,20.4270,-43.3130,35.4500
3.8592,0.1020,-0.1340,1.1850,-0.2750,21.5110,-43.5880,35.4000
3.8656,0.0910,-0.1250,1.1690,-0.2140,23.7250,-43.9240,35.4000
3.8778,0.0690,-0.1110,1.1790,1.4960,23.8930,-43.9390,35.3500
3.8901,0.0540,-0.1050,1.1530,1.0840,21.2210,-42.7020,35.3100
3.8974,0.0700,-0.0960,1.1720,-0.0920,20.0000,-42.2750,35.3500
3.9091,0.0870,-0.0880,1.2050,-0.7020,18.7790,-42.3360,35.3500
3.9162,0.0740,-0.0970,1.1710,2.0920,20.2600,-42.5340,35.4000
3.9284,0.0830,-0.0750,1.1770,-0.7020,22.6410,-43.1910,35.3500
3.9404,0.0740,-0.0880,1.1550,-1.8630,20.8850,-44.1070,35.3500
3.9473,0.0690,-0.1000,1.1530,-2.0000,20.0760,-44.6260,35.4000
3.9593,0.0550,-0.1070,1.1640,-1.6790,19.5880,-44.7330,35.3500
3.9665,0.0540,-0.1140,1.1520,-1.4810,18.9160,-44.1830,35.4500
3.9782,0.0540,-0.1220,1.1600,-1.5420,18.1830,-42.9160,35.4000
3.9857,0.0600,-0.1320,1.1800,-0.5800,17.8470,-42.4270,35.3500
3.9975,0.0820,-0.1220,1.2020,1.0380,18.4430,-41.4500,35.3500
