Time,AX,AY,AZ,GX,GY,GZ,T
0.0000,-0.2160,-0.0030,1.1900,-2.3360,32.2440,-44.5340,33.8500
0.0005,-0.2220,0.0010,1.1890,-4.1830,34.8550,-45.1910,33.8000
0.0009,-0.2690,-0.0020,1.1730,-6.1220,33.4050,-47.3280,33.7500
0.0013,-0.2350,-0.0250,1.1390,-6.4120,31.3890,-48.7330,33.8000
0.0017,-0.2080,-0.0660,1.1390,-6.6720,29.4660,-47.2820,33.7500
0.0023,-0.1760,-0.0950,1.0950,-4.5650,27.5570,-42.5040,33.8500
0.0027,-0.1880,-0.1090,1.0630,-1.4810,28.1530,-37.7710,33.8000
0.0034,-0.2260,-0.1080,1.0540,4.9310,27.1300,-35.3130,33.7500
0.0038,-0.2710,-0.0770,1.1160,9.2060,23.1150,-34.5190,33.7500
0.0042,-0.2540,-0.0550,1.1370,10.3820,22.1830,-34.8240,33.8000
0.0047,-0.2290,-0.0430,1.1830,11.5270,25.2210,-33.6490,33.8500
0.0051,-0.2530,-0.0090,1.2300,7.6790,28.7630,-33.6640,33.8000
0.0055,-0.3120,-0.0010,1.2870,1.6030,28.1530,-36.2750,33.8000
0.0059,-0.3140,0.0160,1.2910,-4.0310,27.8320,-39.6340,33.7500
0.0063,-0.3240,0.0010,1.2860,-10.9160,29.4960,-43.1600,33.7100
0.0067,-0.3420,-0.0180,1.2640,-16.6410,32.6720,-45.8170,33.8500
0.0071,-0.3710,-0.0350,1.2310,-19.5570,30.6870,-49.7100,33.8900
0.0075,-0.3370,-0.0680,1.1950,-14.5040,30.3660,-50.9770,33.8500
0.0078,-0.3240,-0.0530,1.2540,-14.2140,18.7790,-50.4580,33.7500
0.0082,-0.2610,-0.0430,1.2520,-12.5650,19.4350,-46.5040,33.8000
0.0086,-0.2870,-0.0370,1.2440,-13.4200,20.6870,-43.6790,33.8500
0.0089,-0.3020,-0.0380,1.2370,-13.8320,21.0530,-41.5270,33.7500
0.0093,-0.3480,-0.0290,1.2280,-12.5950,15.6790,-42.2290,33.8000
0.0097,-0.3370,-0.0240,1.2740,-12.3210,9.8020,-46.2900,33.7500
0.0103,-0.2590,-0.0240,1.3100,-14.7020,10.1830,-47.5730,33.8000
0.0107,-0.2570,-0.0200,1.2940,-19.8930,15.3890,-45.8470,33.8000
0.0112,-0.3130,-0.0530,1.2740,-24.5800,15.8930,-46.6260,33.7500
0.0115,-0.3050,-0.0620,1.2540,-24.5040,17.3130,-46.5190,33.8000
0.0118,-0.2880,-0.0780,1.2500,-23.6640,14.0760,-44.9620,33.6600
0.0122,-0.3130,-0.0820,1.2490,-22.3970,9.5110,-42.5500,33.8000
0.0126,-0.3120,-0.0780,1.2450,-23.0530,-0.9310,-41.1910,33.7500
0.0134,-0.4140,-0.0970,1.2550,-20.2600,-11.9540,-44.1530,33.7500
0.0138,-0.2900,-0.1780,1.1600,-8.6560,9.5420,-42.1070,33.8000
0.0142,-0.2580,-0.1060,1.2680,-17.2520,-4.3210,-36.2750,33.7500
0.0145,-0.2070,-0.1210,1.2920,-17.5880,-17.6340,-31.4050,33.7500
0.0149,-0.2550,-0.1020,1.2500,-16.3360,-8.5800,-27.7710,33.8900
0.0153,-0.3200,-0.0990,1.2450,-14.9620,-15.0080,-30.5340,33.7500
0.0157,-0.2750,-0.1100,1.2350,-9.3890,-23.7860,-34.1980,33.7100
0.0161,-0.2130,-0.1160,1.2640,-4.6560,-21.7710,-36.0310,33.8000
0.0165,-0.2710,-0.1010,1.3210,-10.0150,-22.3820,-39.4500,33.8500
0.0168,-0.2810,-0.1380,1.2790,-14.9470,-16.3210,-46.5500,33.8000
0.0172,-0.2940,-0.1570,1.2290,-22.2900,-18.5950,-55.3590,33.9400
0.0176,-0.2250,-0.1980,1.1740,-9.6950,-7.3130,-63.0840,33.8500
0.0181,-0.1730,-0.1800,1.2290,-6.2290,-19.6490,-67.3130,33.8500
0.0184,-0.0600,-0.2080,1.2600,-5.3280,-23.9390,-65.6180,33.8500
0.0189,-0.0350,-0.2200,1.2270,-8.3970,-20.8850,-60.6720,33.8900
0.0194,0.0650,-0.2290,1.2390,-4.2290,-24.4120,-57.2820,33.8500
0.0198,0.2180,-0.2190,1.2060,-9.0530,-29.9390,-45.1600,33.8500
0.0201,0.1700,-0.1300,1.2840,0.2750,-12.0310,-30.4890,33.8000
0.0204,0.0920,-0.0980,1.3520,-7.8320,-16.5650,-20.8240,33.9400
0.0208,-0.0930,-0.0670,1.2980,-8.7790,-24.8850,-19.1300,33.8000
0.0211,-0.1670,-0.0380,1.1720,-3.9690,-34.0610,-25.4350,33.8000
0.0214,-0.2080,-0.0570,1.1820,7.7100,-47.1600,-35.6490,33.8500
0.0217,-0.2140,-0.0720,1.3240,16.4430,-71.1150,-44.4430,33.8000
0.0221,-0.1230,-0.0670,1.4030,15.6180,-77.6490,-48.4580,33.7500
0.0224,-0.1480,-0.1010,1.4270,6.5500,-72.9470,-49.3130,33.8900
0.0227,-0.1850,-0.1560,1.3330,1.9080,-77.4050,-54.1070,33.7500
0.0230,-0.1690,-0.2500,1.2370,7.6030,-81.4660,-58.9310,33.7500
0.0232,-0.0410,-0.2160,1.2530,6.7020,-84.5190,-58.9310,33.8000
0.0235,0.0730,-0.2270,1.2780,7.4200,-64.4730,-52.3510,33.8500
0.0238,0.0970,-0.1630,1.3350,3.3890,-31.4960,-42.7940,33.7500
0.0241,0.0680,-0.1830,1.3360,3.1450,-18.0150,-37.7400,33.8000
0.0244,0.0630,-0.1300,1.2960,-1.8320,-8.4580,-30.5040,33.7500
0.0246,0.0320,-0.1220,1.2650,-1.2520,-3.9850,-27.4350,33.8000
0.0249,0.0350,-0.1200,1.2510,1.5570,1.7560,-28.3660,33.8000
0.0252,0.0800,-0.1080,1.2150,2.7630,2.5190,-29.0230,33.9400
0.0254,0.0780,-0.0990,1.1710,8.6260,-2.0610,-31.3740,33.8000
0.0257,0.0980,-0.0970,1.1720,13.9390,-4.4580,-35.0080,33.8500
0.0260,0.1520,-0.0840,1.1660,12.9310,-0.0760,-38.2140,33.6600
0.0263,0.1970,-0.0740,1.1740,12.7630,-0.7790,-38.7480,33.8500
0.0266,0.1480,-0.0470,1.1350,12.6560,-11.8470,-38.3970,33.7500
0.0268,0.1200,-0.0570,1.0540,13.3130,-16.3360,-38.6260,33.8000
0.0274,0.1140,-0.0700,1.0490,17.1300,-19.6180,-40.1220,33.8500
0.0276,0.1590,-0.0760,1.0570,19.0840,-16.4120,-42.0150,33.8500
0.0279,0.1690,-0.0230,1.1100,13.3280,-10.5340,-41.7710,33.8000
0.0282,0.1920,-0.0300,1.1320,11.1300,-7.8320,-39.4660,33.8500
0.0284,0.1770,0.0330,1.2160,1.2980,-7.1300,-37.1150,33.7100
0.0287,0.1150,0.0120,1.1810,-2.0760,-17.8630,-40.8550,33.8000
0.0289,0.1340,-0.0380,1.1500,-10.6720,-18.9310,-41.8930,33.7500
0.0292,0.1810,-0.0270,1.1230,-15.3280,-17.9540,-43.2520,33.8000
0.0294,0.2330,-0.0570,1.1040,-15.0380,-11.7250,-41.2060,33.7500
0.0297,0.2060,-0.0590,1.1500,-19.6640,-8.0460,-39.1760,33.7500
0.0299,0.1880,-0.0580,1.1200,-23.2060,-4.4270,-37.9080,33.8500
0.0302,0.2020,-0.0740,1.1330,-23.3890,1.3590,-37.8470,33.7500
0.0304,0.2290,-0.1100,1.1080,-22.9620,5.3440,-37.4810,33.8900
0.0307,0.1900,-0.0540,1.1750,-26.0760,6.2290,-36.5040,33.7500
0.0309,0.1750,-0.0230,1.3270,-31.9850,-0.6720,-36.5800,33.8500
0.0312,0.1770,-0.0230,1.2820,-40.4730,5.7560,-37.2210,33.8900
0.0314,0.1250,-0.0580,1.1440,-41.3590,16.2750,-41.0230,33.8500
0.0317,0.0860,-0.1150,1.0710,-38.3510,25.4810,-47.5270,33.8000
0.0319,0.0800,-0.1200,1.0450,-39.2060,27.1450,-52.3050,33.8000
0.0322,0.1940,-0.1380,1.0210,-36.0920,34.5800,-52.5800,33.7500
0.0324,0.2340,-0.1730,1.0640,-32.5650,32.8550,-46.8850,33.8000
0.0326,0.2390,-0.1320,1.1020,-29.2520,21.9080,-38.1830,33.8500
0.0329,0.2520,-0.1950,1.0310,-20.1070,15.5880,-28.3660,33.8000
0.0331,0.1550,-0.1910,1.0360,-15.6180,10.1370,-24.6410,33.7500
0.0334,0.0460,-0.1960,1.0440,-11.6790,7.8630,-28.2140,33.8500
0.0336,0.0060,-0.2080,1.0710,-9.8930,3.6180,-35.0690,33.8000
0.0339,0.0370,-0.1940,1.0970,-10.7480,0.9470,-41.0080,33.7500
0.0341,0.0720,-0.1780,1.1120,-10.8400,1.2820,-41.3890,33.7500
0.0343,0.0330,-0.1650,1.0630,-5.5110,-9.2980,-41.0230,33.8000
0.0346,0.0600,-0.1780,1.0190,2.5040,-15.8320,-40.4890,33.7500
0.0348,0.1070,-0.2020,1.0300,8.9310,-20.4270,-39.7860,33.8000
0.0350,0.1580,-0.2000,1.0890,11.3890,-23.9390,-36.3360,33.8000
0.0353,0.1340,-0.1950,1.1290,9.8630,-29.6180,-34.2600,33.7500
0.0356,0.1710,-0.1670,1.1100,8.7790,-30.7330,-33.5270,33.8000
0.0358,0.1660,-0.1550,1.1040,5.1600,-24.4580,-32.7630,33.8500
0.0360,0.1400,-0.1260,1.1420,2.5950,-24.4270,-32.6720,33.8000
0.0362,0.1650,-0.1140,1.1410,-2.3820,-18.4580,-33.6030,33.7500
0.0365,0.1530,-0.1430,1.1350,-6.1830,-6.3970,-35.6180,33.7500
0.0367,0.1320,-0.1910,1.0510,-9.9080,-3.1450,-37.7560,33.7100
0.0369,0.1410,-0.2200,0.9580,-7.7560,4.3360,-39.5730,33.8500
0.0371,0.1720,-0.2260,0.9660,-3.6340,8.5800,-40.6260,33.6600
0.0374,0.1680,-0.2210,1.0100,-0.5650,7.0230,-40.8550,33.8000
0.0376,0.1410,-0.2160,0.9990,5.0230,1.4500,-41.4350,33.7500
0.0378,0.1810,-0.1960,1.0130,8.4580,-0.3050,-42.2600,33.8900
0.0380,0.1210,-0.1650,1.0740,13.0230,-8.6560,-46.2440,33.8000
0.0383,0.1650,-0.1740,1.0530,14.1980,-13.3130,-48.9470,33.7500
0.0385,0.2750,-0.1710,1.0700,13.8930,-15.6180,-48.1830,33.7100
0.0387,0.3250,-0.1590,1.0900,14.9620,-10.5500,-42.9310,33.6600
0.0389,0.3410,-0.1400,1.0380,12.1220,-5.4200,-36.4430,33.8500
0.0392,0.2900,-0.1250,1.0830,13.1150,-3.0990,-32.0610,33.7500
0.0394,0.1820,-0.0990,1.1360,10.0000,-5.8170,-32.9470,33.7500
0.0397,0.1470,-0.0910,1.1330,5.7100,-6.6720,-39.4200,33.8000
0.0400,0.2020,-0.0830,1.1240,2.7940,-4.5340,-47.2060,33.7500
0.0402,0.2980,-0.0790,1.1470,-2.7940,-0.9770,-49.0230,33.7500
0.0404,0.3820,-0.0960,1.0870,-5.9850,9.4660,-45.7710,33.7100
0.0406,0.3640,-0.1230,1.0570,-6.8400,18.4580,-43.4500,33.7500
0.0408,0.3370,-0.1560,1.0520,-7.8170,26.0760,-41.0990,33.7100
0.0410,0.2920,-0.1620,1.0210,-8.6870,30.0760,-39.9080,33.7100
0.0412,0.2320,-0.1550,1.0170,-7.5730,34.4580,-40.2750,33.8500
0.0414,0.2180,-0.1350,1.0560,-5.1450,33.0990,-42.0310,33.8000
0.0416,0.2320,-0.1430,1.0680,-0.8550,27.8320,-42.1680,33.8500
0.0418,0.2360,-0.1490,1.0260,1.9690,20.5650,-41.5270,33.8000
0.0420,0.2620,-0.1650,1.0020,6.4890,17.8780,-43.9690,33.7500
0.0422,0.2810,-0.1280,1.0740,9.2060,16.6560,-44.7480,33.7500
0.0424,0.3210,-0.1090,1.1010,9.0080,17.0530,-42.7330,33.7100
0.0426,0.2750,-0.1040,1.1190,8.8850,20.5650,-42.7330,33.7500
0.0428,0.2860,-0.1010,1.1040,7.3130,26.5340,-45.4350,33.7500
0.0430,0.3060,-0.0990,1.0740,4.9620,35.1300,-45.6790,33.8900
0.0432,0.3020,-0.1110,1.0610,3.5270,42.5340,-45.3440,33.7500
0.0435,0.2410,-0.0740,1.1150,0.8090,40.0310,-45.9690,33.7100
0.0438,0.3250,-0.0760,1.0650,2.1370,43.5880,-40.8090,33.7500
0.0440,0.3420,-0.0710,1.0730,4.9770,39.2520,-35.3890,33.7500
0.0442,0.3100,-0.0620,1.0790,6.0610,35.0690,-32.9010,33.8000
0.0444,0.2210,-0.0650,1.1270,5.0990,35.2370,-36.1830,33.7500
0.0446,0.1230,-0.0590,1.1580,2.2750,29.6340,-44.1530,33.8000
0.0448,0.1660,-0.0500,1.1600,-1.7250,24.0920,-52.7790,33.8500
0.0450,0.2240,-0.0980,1.1400,-6.0310,27.2210,-56.1370,33.7500
0.0452,0.2160,-0.1060,1.1260,-9.4200,26.4730,-56.7330,33.8000
0.0454,0.2230,-0.1320,1.0990,-10.6260,21.0690,-56.4580,33.6600
0.0456,0.2690,-0.1350,1.0710,-8.4730,8.6260,-53.5880,33.8000
0.0458,0.3040,-0.1410,1.0340,-3.9390,0.6720,-47.4200,33.7100
0.0460,0.2550,-0.1250,1.0840,-0.1530,-4.6870,-43.7560,33.7500
0.0463,0.3040,-0.1160,1.0960,-8.3660,27.4200,-45.8020,33.8500
0.0465,0.3130,-0.1220,1.0950,-8.3360,28.3050,-46.2750,33.8000
0.0467,0.3070,-0.1310,1.0820,-7.4810,29.3890,-46.7790,33.8000
0.0468,0.2920,-0.1190,1.1050,-8.6560,30.2750,-47.3130,33.7500
0.0470,0.2980,-0.1280,1.0800,-8.2440,31.8170,-48.6410,33.8000
0.0547,0.3080,-0.1310,1.0790,-7.7860,33.3440,-48.2750,33.7500
0.0616,0.3240,-0.1410,1.0710,-8.3510,36.5650,-47.2370,33.8900
0.0739,0.2720,-0.1470,1.0580,-7.9540,36.2900,-46.6870,33.8000
0.0805,0.2430,-0.1490,1.0430,-6.3360,35.1910,-48.2750,33.8500
0.0929,0.2630,-0.1380,1.0490,-4.8400,34.9770,-50.5190,33.8000
0.1051,0.2540,-0.1330,1.0590,-4.3510,35.5110,-51.6180,33.7500
0.1119,0.2250,-0.1290,1.0490,-3.3890,35.2060,-53.9690,33.8000
0.1242,0.2340,-0.1260,1.0350,-1.2520,35.5730,-55.1760,33.8500
0.1308,0.2790,-0.1160,1.0420,1.5570,31.5270,-54.1830,33.7500
0.1431,0.2990,-0.1060,1.0760,3.2520,26.5950,-51.1150,33.8000
0.1500,0.3100,-0.1010,1.1020,4.0610,24.9310,-49.5570,33.7500
0.1623,0.2870,-0.1190,1.0920,4.1980,25.0990,-48.9470,33.8500
0.1747,0.2750,-0.1060,1.0790,4.7940,24.7940,-49.4960,33.8900
0.1813,0.2620,-0.0790,1.0910,5.2820,24.2290,-50.4120,33.7500
0.1938,0.2770,-0.0770,1.1470,4.3210,23.0690,-51.2210,33.8000
0.2008,0.2860,-0.0680,1.1160,3.3440,22.2140,-51.9850,33.8000
0.2130,0.2890,-0.0810,1.1470,4.0610,24.0000,-54.0760,33.7500
0.2252,0.3180,-0.0890,1.1410,2.5040,24.4580,-55.3280,33.8900
0.2322,0.3300,-0.0940,1.1460,1.5730,25.4660,-54.1830,33.9400
0.2446,0.3040,-0.0890,1.1650,0.5190,25.0990,-52.6870,33.8000
0.2512,0.2900,-0.0820,1.1630,-1.7250,26.1680,-52.7330,33.7500
0.2635,0.2970,-0.0930,1.1480,-1.8930,25.6950,-52.0150,33.8500
0.2703,0.2940,-0.0970,1.1330,-1.3440,25.6180,-51.3590,33.8000
0.2827,0.2930,-0.0870,1.1260,-0.9620,26.8240,-51.5880,33.7500
0.2950,0.3210,-0.0750,1.1560,-0.9920,29.2520,-50.6410,33.8500
0.3017,0.3210,-0.0780,1.1820,-1.1760,28.8090,-49.8470,33.8000
0.3139,0.3160,-0.0920,1.1690,-1.5570,27.9080,-49.5730,33.7500
0.3208,0.3010,-0.1290,1.1500,-1.6490,26.9160,-50.2140,33.8900
0.3329,0.3060,-0.1330,1.1290,-1.8470,26.8240,-50.5950,33.7500
0.3450,0.3300,-0.1290,1.1280,-2.9620,30.1980,-49.7710,33.8500
0.3519,0.3280,-0.1270,1.1230,-2.7020,30.6720,-48.5800,33.8900
0.3637,0.3070,-0.1140,1.1380,-2.5190,28.7180,-47.3130,33.8500
0.3708,0.2930,-0.1110,1.1280,-2.3360,26.0610,-46.3660,33.8000
0.3829,0.2880,-0.1000,1.1010,-1.0840,23.9540,-45.7250,33.8500
0.3951,0.2730,-0.0920,1.1420,-1.6180,24.4270,-45.2820,33.8500
0.4020,0.2630,-0.0810,1.1550,-2.5190,21.9850,-45.4050,33.8000
0.4141,0.2680,-0.1030,1.1600,-3.7100,23.1150,-46.7020,33.7500
0.4210,0.2940,-0.1170,1.1390,-5.6340,27.8630,-48.7480,33.7500
0.4331,0.2780,-0.1470,1.1180,-6.4580,31.5880,-51.1450,33.7100
0.4452,0.2790,-0.1510,1.1150,-6.5040,35.3280,-53.4050,33.9400
0.4518,0.2940,-0.1510,1.0870,-5.2520,35.7400,-54.3510,33.8000
0.4644,0.3330,-0.1400,1.1040,-3.9080,34.8700,-53.3890,33.7500
0.4712,0.3340,-0.1390,1.0850,-2.1070,32.7630,-49.8020,33.8500
0.4834,0.3100,-0.1220,1.0870,1.6790,27.3740,-45.5730,33.8000
0.4891,0.3010,-0.1010,1.1460,3.9240,22.0760,-43.6030,33.8500
0.5022,0.3120,-0.0870,1.1770,4.5340,17.7400,-41.2210,33.8000
0.5144,0.2920,-0.0700,1.1760,5.8470,14.9470,-40.5650,33.8500
0.5214,0.2560,-0.0810,1.2270,4.1680,18.8240,-42.1370,33.8500
0.5337,0.2200,-0.1030,1.2080,0.9160,21.9080,-46.8850,33.8000
0.5410,0.2140,-0.1480,1.1770,-1.9240,29.4350,-52.9010,33.8500
0.5528,0.2590,-0.1560,1.1320,-3.4810,33.1760,-55.1600,33.8000
0.5651,0.3090,-0.1430,1.1260,-2.6720,36.9310,-52.8850,33.8000
0.5719,0.3180,-0.1360,1.1450,-1.5880,35.8630,-47.4500,33.7500
0.5841,0.2640,-0.1270,1.1390,1.3440,30.4580,-43.1450,33.8000
0.5913,0.2330,-0.1180,1.1240,4.9920,27.1150,-42.9010,33.7500
0.6032,0.2200,-0.0970,1.1620,7.3130,25.5730,-45.1600,33.8500
0.6091,0.2240,-0.0790,1.1960,8.2290,25.0690,-47.3130,33.8000
0.6224,0.2320,-0.0610,1.2410,6.3970,24.9470,-49.3590,33.7500
0.6345,0.2600,-0.0470,1.2230,3.4350,27.5270,-49.3890,33.8900
0.6417,0.2570,-0.0620,1.1950,0.4120,31.3280,-49.2980,33.7500
0.6538,0.2110,-0.0810,1.1710,-2.5340,33.3590,-50.6870,33.8500
0.6605,0.2210,-0.1060,1.1460,-6.0760,33.0380,-52.6260,33.8900
0.6729,0.2540,-0.1280,1.1050,-6.4120,33.0690,-52.0760,33.8500
0.6850,0.2830,-0.1530,1.0860,-5.2520,34.9620,-50.1680,33.8900
0.6920,0.2540,-0.1570,1.0760,-2.8550,31.6790,-47.8020,33.8000
0.7039,0.2300,-0.1390,1.0810,1.1910,27.7710,-46.3360,33.7500
0.7111,0.2220,-0.1200,1.1130,5.0840,21.9080,-45.3130,33.8000
0.7233,0.2470,-0.1130,1.1120,8.6110,17.7710,-43.6950,33.8500
0.7353,0.2440,-0.1150,1.1280,12.7180,16.6410,-42.9620,33.8900
0.7426,0.2310,-0.1260,1.1170,14.0920,14.1680,-43.8470,33.8000
0.7543,0.2080,-0.1180,1.1010,14.7020,13.7250,-46.4430,33.8500
0.7616,0.2490,-0.0820,1.1670,13.0690,14.4120,-50.5340,33.8000
0.7735,0.2880,-0.0580,1.2220,6.8400,18.5040,-51.3440,33.7500
0.7805,0.3030,-0.0550,1.1720,2.8400,26.0150,-51.4500,33.8000
0.7927,0.3140,-0.0530,1.2040,1.6340,30.1530,-50.3360,33.8000
0.8047,0.3100,-0.0640,1.1890,-1.2210,33.9240,-49.0380,33.7500
0.8115,0.3020,-0.0790,1.1500,-0.9770,38.1530,-48.4580,33.8000
0.8239,0.2710,-0.0920,1.1700,0.0150,39.9240,-48.7020,33.8500
0.8307,0.2710,-0.0850,1.1770,0.4270,38.5040,-48.2600,33.7500
0.8430,0.2710,-0.0790,1.1310,3.4050,35.5570,-45.0690,33.7500
0.8553,0.2170,-0.0680,1.1450,6.7330,27.1910,-41.6490,33.8500
0.8621,0.1820,-0.0650,1.1520,9.0380,23.7860,-42.6410,33.8000
0.8743,0.1790,-0.0570,1.1730,9.5880,20.9010,-44.1680,33.7500
0.8815,0.1570,-0.0560,1.1940,9.4960,19.7400,-49.3280,33.7500
0.8935,0.1450,-0.0310,1.2630,4.7020,26.8400,-57.9240,33.8900
0.9008,0.1460,-0.0050,1.3010,-4.0920,35.2820,-68.6870,33.8500
0.9125,0.2620,-0.0070,1.2310,-11.4660,41.9080,-70.0760,33.8000
0.9248,0.3330,-0.0360,1.1340,-12.5040,43.3280,-62.1370,33.8500
0.9319,0.3920,-0.0930,1.0290,-5.6030,34.4580,-43.8780,33.8500
0.9435,0.3850,-0.1430,0.9770,3.9390,23.1450,-22.6560,33.8000
0.9505,0.2580,-0.1570,0.9990,14.0150,13.4660,-7.9690,33.8500
0.9627,0.0670,-0.1460,1.0470,20.7940,2.2440,-8.9160,33.7100
0.9750,0.0140,-0.1110,1.1000,24.1680,-2.3660,-20.1680,33.7500
0.9820,0.0910,-0.1030,1.1680,26.1070,-2.6260,-32.6560,33.8500
0.9940,0.1490,-0.0770,1.2080,21.8930,5.9690,-42.6560,33.8000
1.0009,0.2020,-0.0780,1.2120,17.0380,15.9080,-49.2520,33.8500
1.0133,0.2620,-0.0770,1.1500,11.3740,31.2670,-51.9690,33.8000
1.0250,0.2680,-0.0430,1.1600,5.7400,35.0840,-48.9470,33.8000
1.0320,0.2620,-0.0460,1.1440,4.8700,35.9690,-44.3970,33.8500
1.0443,0.2610,-0.0440,1.1120,7.1760,30.6560,-40.9770,33.8900
1.0514,0.2520,-0.0370,1.1390,10.0460,28.9310,-38.1680,33.8500
1.0634,0.2220,-0.0150,1.1670,11.6030,21.8930,-37.7860,33.8500
1.0703,0.2140,-0.0070,1.1700,14.3970,15.8170,-38.3360,33.8000
1.0824,0.2120,-0.0030,1.1930,15.3440,15.6490,-38.9010,33.8500
1.0946,0.1970,0.0120,1.1950,15.3890,12.6560,-39.5730,33.8000
1.1017,0.2170,0.0200,1.1800,13.4810,13.9690,-41.6180,33.7500
1.1139,0.1840,0.0290,1.2280,9.8170,15.1450,-43.5110,33.8500
1.1209,0.1730,0.0340,1.2550,2.2750,13.8780,-48.0610,33.8000
1.1332,0.1830,0.0350,1.2210,-5.4960,16.3660,-53.0380,33.8500
1.1403,0.2270,0.0280,1.1890,-11.4810,24.9310,-57.0840,33.8000
1.1523,0.2530,-0.0040,1.1710,-15.7860,32.6720,-58.6410,33.8000
1.1645,0.2720,-0.0150,1.1450,-17.9240,36.8550,-59.0080,33.8500
1.1713,0.2850,-0.0350,1.1310,-17.1150,39.7250,-57.8470,33.8000
1.1834,0.2880,-0.0460,1.1070,-13.3890,38.2600,-55.4500,33.8500
1.1952,0.2860,-0.0530,1.1130,-8.6410,36.5950,-52.4270,33.8000
1.2024,0.2690,-0.0570,1.1380,-5.9240,31.2670,-47.4960,33.8000
1.2143,0.2220,-0.0310,1.1460,-3.3740,24.4890,-44.1980,33.8500
1.2213,0.1830,-0.0160,1.1390,-0.4890,22.2600,-44.2290,33.8000
1.2334,0.1660,-0.0210,1.1540,0.0610,23.0380,-47.3740,33.8500
1.2404,0.2060,-0.0310,1.1900,-2.3210,26.0610,-51.2060,33.8500
1.2525,0.2280,-0.0430,1.2120,-7.0080,29.2820,-51.3590,33.8000
1.2645,0.2090,-0.0570,1.1620,-9.0230,31.2370,-51.7710,33.8500
1.2715,0.1950,-0.0760,1.1510,-10.1370,36.8090,-53.7710,33.8900
1.2836,0.2170,-0.0830,1.1200,-8.8700,39.1450,-53.6030,33.8900
1.2903,0.1980,-0.0780,1.1480,-6.8400,36.1980,-52.4890,33.8500
1.3025,0.1800,-0.0610,1.1750,-4.6110,32.2140,-51.3740,33.8000
1.3148,0.1880,-0.0540,1.1580,-0.8090,27.6490,-48.9920,33.8500
1.3214,0.1810,-0.0590,1.1670,3.2370,26.5650,-48.1980,33.8000
1.3338,0.2040,-0.0490,1.1860,3.4810,27.2370,-47.0530,33.8900
1.3410,0.2160,-0.0320,1.1730,3.7100,29.3280,-45.8020,33.7500
1.3531,0.1730,-0.0500,1.1770,5.2980,31.0990,-46.7180,33.8900
1.3654,0.1470,-0.0350,1.1960,1.6950,30.1220,-49.0840,33.7500
1.3723,0.1290,-0.0020,1.2300,1.0080,24.6720,-51.3890,33.8000
1.3843,0.1670,0.0030,1.1970,-1.0080,21.8470,-52.6560,33.8000
1.3915,0.1680,-0.0060,1.2190,-1.0380,23.3890,-53.9850,33.8500
1.4036,0.1940,-0.0220,1.2060,-2.3970,25.4500,-54.8700,33.8000
1.4107,0.2140,-0.0230,1.1780,-2.8240,26.0760,-53.7710,33.8500
1.4225,0.2330,-0.0310,1.1730,-2.8240,25.1910,-50.8850,33.8500
1.4344,0.2140,-0.0290,1.1430,-0.9010,26.5950,-49.0530,33.8500
1.4414,0.2010,-0.0130,1.1630,-0.7330,26.8400,-47.5570,33.7500
1.4535,0.1690,0.0080,1.2100,-2.9470,24.7020,-45.6180,33.8900
1.4608,0.1160,0.0060,1.1910,-3.2820,21.3280,-46.1370,33.8500
1.4728,0.1150,-0.0010,1.1470,-2.1530,20.4120,-49.7560,33.8500
1.4849,0.1490,-0.0350,1.1570,-2.1220,23.0690,-53.5270,33.8900
1.4919,0.2000,-0.0520,1.1390,-3.9850,27.4660,-54.1980,33.8500
1.5038,0.2110,-0.0510,1.1160,-3.9540,29.6180,-52.8550,33.8900
1.5108,0.1990,-0.0530,1.1140,-2.2440,29.3130,-51.2060,33.8500
1.5231,0.1790,-0.0380,1.1410,-1.7860,27.5420,-49.0530,33.7500
1.5350,0.1620,-0.0260,1.1370,0.0000,22.1980,-48.1370,33.8000
1.5421,0.1400,-0.0420,1.1410,2.3660,21.5730,-48.8550,33.7500
1.5542,0.1570,-0.0430,1.1330,4.9310,18.9160,-50.8400,33.8900
1.5612,0.2140,-0.0190,1.1730,4.4270,20.8240,-48.4120,33.8500
1.5736,0.2200,0.0220,1.1900,4.0000,18.8700,-43.9540,33.8500
1.5809,0.1590,0.0260,1.1760,4.7630,19.8170,-43.2820,33.8900
1.5928,0.1250,0.0160,1.1960,3.3130,21.0690,-46.7790,33.7500
1.6049,0.1390,-0.0160,1.1650,1.1450,23.3280,-50.3970,33.8000
1.6122,0.1530,-0.0230,1.1720,-0.0150,25.0840,-52.7480,33.8000
1.6243,0.1920,-0.0050,1.1790,-0.9620,24.7630,-51.4500,33.8500
1.6310,0.2560,-0.0120,1.1700,-0.5950,28.8400,-47.9690,33.8000
1.6434,0.1990,0.0340,1.1870,-2.5340,24.4120,-44.7330,33.8500
1.6492,0.1390,0.0310,1.1750,-1.0230,24.8700,-43.2060,33.8900
1.6623,0.1000,0.0070,1.1680,-0.1830,23.1600,-45.4810,33.8000
1.6746,0.1240,0.0110,1.1980,-2.1680,22.7480,-45.2210,33.8500
1.6819,0.1300,0.0090,1.1820,-3.8470,22.4890,-44.0760,33.8000
1.6939,0.0930,0.0060,1.1530,-3.7400,23.5420,-44.5190,33.8500
1.7010,0.0640,0.0190,1.1760,-4.5340,21.7860,-46.7180,33.8500
1.7133,0.0540,0.0140,1.1680,-3.9540,15.6030,-49.8020,33.8000
1.7254,0.1400,-0.0010,1.1460,-2.8550,12.5500,-51.9850,33.8500
1.7323,0.2140,-0.0100,1.1860,-2.3360,15.0530,-50.7020,33.8000
1.7444,0.2490,-0.0160,1.1560,-2.7940,17.8170,-46.4580,33.8500
1.7513,0.2230,-0.0110,1.1230,-2.3050,18.5800,-42.6870,33.8500
1.7632,0.2180,-0.0010,1.1340,-1.4050,19.5420,-39.0990,33.8500
1.7752,0.1930,-0.0060,1.1340,-0.3360,17.6640,-37.7100,33.8500
1.7825,0.1670,0.0090,1.1590,-1.2210,20.6870,-39.6030,33.8900
1.7946,0.1680,0.0050,1.1950,-3.5570,22.8850,-42.3970,33.8500
1.8014,0.1740,0.0060,1.1710,-5.9390,25.4810,-45.8780,33.8500
1.8135,0.1760,0.0070,1.1840,-8.1370,30.9620,-50.7630,33.8000
1.8205,0.1650,-0.0030,1.2100,-11.5420,31.7710,-53.3440,33.8500
1.8327,0.2050,-0.0410,1.1160,-12.8240,32.0760,-54.6110,33.8900
1.8448,0.2440,-0.0440,1.1170,-11.9850,32.2140,-52.4270,33.8000
1.8518,0.2500,-0.0530,1.1450,-13.3890,34.0610,-46.3660,33.8500
1.8637,0.1730,-0.0570,1.0940,-11.8630,29.7400,-43.2820,33.8000
1.8706,0.1390,-0.0610,1.0720,-5.9390,28.5340,-44.9160,33.9400
1.8827,0.1750,-0.0440,1.1250,-3.4810,26.1830,-45.3440,33.9900
1.8947,0.2080,-0.0370,1.1470,-2.4580,23.8780,-43.5730,33.8500
1.9017,0.1670,-0.0450,1.1300,-0.9470,24.3210,-44.0310,33.8500
1.9135,0.1550,-0.0570,1.1210,0.1830,26.2900,-46.7480,33.8000
1.9208,0.1750,-0.0640,1.1420,-1.6790,30.3050,-48.3360,33.8500
1.9330,0.2010,-0.0640,1.1170,-3.3130,34.5040,-49.7250,33.6600
1.9447,0.2040,-0.0780,1.1470,-4.2140,38.2750,-49.8630,33.8900
1.9519,0.1940,-0.0930,1.1220,-6.4580,38.9160,-48.6260,33.7500
1.9639,0.2110,-0.0830,1.0640,-4.8550,39.6490,-47.2670,33.8900
1.9708,0.2380,-0.0610,1.0780,-0.7480,35.4500,-42.8550,33.8500
1.9827,0.1880,-0.0140,1.2030,-0.0150,29.9390,-38.1530,33.8500
1.9949,0.1320,0.0000,1.1790,1.6490,22.6870,-37.3280,33.8000
2.0019,0.1380,-0.0140,1.1520,5.1150,23.3130,-40.4580,33.7500
2.0143,0.1630,-0.0240,1.1880,5.1450,25.7560,-44.1680,33.8000
2.0214,0.1800,-0.0400,1.1550,3.0690,28.9620,-47.3890,33.8500
2.0336,0.2030,-0.0150,1.1900,-2.4580,33.5110,-49.5570,33.8500
2.0406,0.2170,-0.0100,1.2330,-3.8170,41.4200,-49.3130,33.8000
2.0526,0.1740,0.0030,1.2000,-8.1680,39.6790,-45.0840,33.7500
2.0647,0.1430,0.0180,1.1700,-8.5650,39.1150,-43.4960,33.8500
2.0718,0.0900,0.0190,1.1700,-6.2600,38.9620,-42.5800,33.8000
2.0837,0.0940,0.0170,1.1970,-4.5040,32.2440,-43.6950,33.7500
2.0910,0.1150,0.0120,1.2520,-5.2210,24.5500,-43.5730,33.8000
2.1034,0.1170,-0.0130,1.2320,-6.0760,20.8400,-45.6180,33.8000
2.1154,0.1070,-0.0450,1.1970,-6.1070,24.0760,-50.0920,33.7500
2.1222,0.1420,-0.0530,1.1770,-8.4730,29.3890,-52.8550,33.8000
2.1343,0.1250,-0.0270,1.1980,-14.1680,31.8470,-52.1220,33.7500
2.1414,0.1390,-0.0600,1.1550,-11.4500,35.1600,-52.6720,33.8000
2.1531,0.1710,-0.0670,1.1650,-12.4890,41.8020,-51.3130,33.7500
2.1649,0.1760,-0.0480,1.1580,-11.9540,46.4120,-49.0080,33.7500
2.1718,0.0920,-0.0570,1.1360,-11.3130,42.1980,-47.5270,33.8000
2.1842,0.0560,-0.0750,1.1190,-6.7630,35.9240,-49.6790,33.8500
2.1908,0.0660,-0.0700,1.1310,-1.2820,32.4270,-52.1830,33.7500
2.2034,0.1030,-0.0680,1.1290,2.3510,29.2210,-52.7180,33.8900
2.2153,0.1430,-0.0590,1.1850,2.5650,28.1530,-50.9620,33.7500
2.2220,0.1770,-0.0550,1.1500,1.9240,34.4890,-48.0920,33.8000
2.2343,0.1830,-0.0590,1.1440,6.3510,39.6790,-45.3280,33.8500
2.2415,0.2130,-0.0700,1.1370,9.1600,47.3590,-41.5270,33.8500
2.2536,0.1150,-0.0410,1.1750,7.0840,47.3740,-39.0530,33.8000
2.2609,0.0020,-0.0010,1.2280,2.1680,38.7940,-43.2520,33.7500
2.2729,0.0360,-0.0100,1.1860,1.0080,43.1300,-48.0310,33.8900
2.2850,0.0400,-0.0160,1.2080,-0.1830,40.2900,-49.2520,33.8500
2.2920,0.0870,-0.0300,1.1820,-0.4430,39.0380,-50.7790,33.7500
2.3041,0.0800,-0.0130,1.2000,-2.3050,39.4050,-49.9850,33.8000
2.3109,0.0970,-0.0280,1.2020,-1.0080,38.2600,-47.8780,33.7500
2.3232,0.1020,-0.0250,1.1910,0.2440,36.0610,-44.0460,33.7500
2.3353,0.0750,0.0030,1.2480,0.8850,36.0920,-40.9770,33.8900
2.3425,-0.0070,0.0070,1.2500,0.2140,34.2140,-40.2290,33.7500
2.3545,-0.0440,0.0210,1.2510,0.1370,29.6340,-43.7560,33.8000
2.3613,-0.0410,-0.0030,1.2640,-0.6560,27.3440,-47.2670,33.8000
2.3737,-0.0140,-0.0180,1.2640,-3.6950,23.6950,-48.7020,33.8500
2.3803,0.0170,-0.0280,1.2500,-6.3510,23.7860,-48.6870,33.8000
2.3925,0.0620,-0.0350,1.2100,-9.9540,26.3510,-48.0760,33.7500
2.4044,0.0490,-0.0350,1.2010,-9.0380,33.4810,-47.4500,33.8000
2.4114,0.0320,-0.0630,1.1750,-6.3660,41.6790,-47.6180,33.8500
2.4236,0.0380,-0.0440,1.1670,-9.1600,40.0920,-46.7790,33.8500
2.4302,0.0210,-0.0380,1.1530,-7.5880,39.8470,-44.6560,33.8000
2.4424,-0.0290,-0.0380,1.1710,-6.9920,35.0530,-43.7100,33.7500
2.4543,-0.0790,-0.0380,1.1680,-7.7400,28.7020,-46.8240,33.8000
2.4615,-0.0340,-0.0430,1.1580,-9.0530,23.4960,-49.4050,33.8000
2.4735,0.0040,-0.0490,1.1720,-10.8550,14.5650,-49.8170,33.8500
2.4804,0.0470,-0.0530,1.2080,-13.1760,4.1830,-46.6560,33.8900
2.4922,0.0670,-0.0530,1.1780,-13.5420,2.5040,-42.7480,33.7500
2.5044,0.0420,-0.0650,1.0990,-10.1530,7.8630,-42.8400,33.8500
2.5114,0.0400,-0.0710,1.0980,-9.8170,12.5190,-44.3820,33.8000
2.5236,0.0160,-0.0750,1.1100,-11.8630,9.2670,-44.5950,33.8500
2.5301,0.1220,-0.0970,1.0690,-7.0990,14.7180,-45.9080,33.8000
2.5426,0.0880,-0.1020,1.1070,-8.7330,18.0610,-47.5570,33.8500
2.5546,0.1260,-0.0900,1.1090,-6.3050,24.2290,-44.8400,33.8500
2.5614,0.0500,-0.0590,1.1210,-6.7330,21.1300,-42.5340,33.8900
2.5739,0.0480,-0.0450,1.1180,-2.9920,21.5270,-42.4730,33.7500
2.5808,0.0650,-0.0390,1.1500,3.2520,28.5650,-43.3440,33.8000
2.5929,0.0690,-0.0360,1.1860,6.6260,34.3820,-43.4050,33.8900
2.6049,0.0430,-0.0370,1.1960,8.4730,36.4580,-45.1450,33.8500
2.6120,0.0430,-0.0320,1.2020,6.9310,36.5500,-46.3210,33.8000
2.6244,0.0420,-0.0350,1.1810,7.4350,37.5110,-46.2140,33.8500
2.6310,0.0130,-0.0090,1.2220,5.8020,30.9310,-46.7330,33.8000
2.6435,0.0420,-0.0260,1.1890,4.4890,28.7330,-45.9080,33.8000
2.6506,0.0430,-0.0160,1.1910,0.9160,24.0460,-43.4200,33.8500
2.6625,0.0540,-0.0160,1.1950,1.4350,25.2980,-43.1150,33.8900
2.6748,0.0770,-0.0100,1.2300,-0.1980,28.4430,-41.2820,33.8500
2.6818,0.0680,-0.0060,1.2490,-3.1910,29.3440,-38.1680,33.8900
2.6938,-0.0120,-0.0090,1.2300,-5.6640,31.0690,-39.2060,33.8000
2.7008,-0.0940,-0.0150,1.2000,-8.7020,24.9770,-43.5570,33.8500
2.7125,-0.0520,-0.0290,1.1720,-5.6030,28.5500,-48.0150,33.8000
2.7249,0.0000,-0.0400,1.2180,-6.2600,29.0080,-47.6180,33.8500
2.7315,0.0350,-0.0540,1.1900,-7.8170,29.8320,-45.3590,33.8500
2.7438,0.0090,-0.0630,1.1650,-6.5950,31.7560,-43.7710,33.8500
2.7507,0.0210,-0.0760,1.1530,-5.6790,40.1980,-44.3510,33.7500
2.7627,-0.0150,-0.0680,1.1420,-0.8240,45.6490,-45.6340,33.8900
2.7748,0.0070,-0.1030,1.1390,-5.0380,35.8170,-44.1680,33.8900
2.7818,-0.0220,-0.0910,1.1320,-2.3510,34.1530,-45.4660,33.8500
2.7940,-0.0050,-0.0640,1.1170,0.9620,32.1980,-47.2520,33.8900
2.8008,0.0080,-0.0370,1.1810,0.7480,26.7480,-46.9310,33.8500
2.8128,0.0260,-0.0420,1.1960,-0.7480,28.4430,-46.2290,33.8900
2.8249,0.0020,-0.0520,1.1620,-3.8470,28.6560,-48.0610,33.8900
2.8320,0.0190,-0.0690,1.1660,-5.5270,31.3590,-49.6950,33.8500
2.8442,0.0560,-0.0940,1.1600,-8.3660,39.2980,-46.7020,33.8000
2.8510,0.0740,-0.0800,1.1220,-9.6340,42.4430,-43.9080,33.8500
2.8630,0.0240,-0.0870,1.0990,-8.7180,48.0460,-40.9470,33.8500
2.8751,-0.0570,-0.0720,1.1140,-5.1300,44.3970,-41.8170,33.7500
2.8820,-0.0350,-0.0560,1.1420,0.5800,44.4120,-43.5110,33.8500
2.8943,-0.0290,-0.0860,1.1630,6.2900,41.6180,-44.0310,33.8000
2.9010,-0.0590,-0.0360,1.1750,4.0460,38.3210,-44.5040,33.8500
2.9130,-0.0740,-0.0340,1.1480,5.6030,34.1070,-46.9920,33.8500
2.9253,0.0020,-0.0690,1.1550,9.6790,40.5650,-46.3510,33.8000
2.9323,-0.0140,-0.0280,1.2200,5.8170,36.0920,-43.8930,33.8500
2.9443,0.0360,-0.0630,1.1780,-1.1760,40.6110,-41.0990,33.8900
2.9513,0.0110,-0.0610,1.1480,-0.2140,49.3590,-37.4350,33.9400
2.9633,-0.0290,-0.0460,1.1420,-0.9920,51.0840,-35.5420,33.8500
2.9753,-0.0550,-0.0520,1.1660,-1.6180,49.9390,-35.6030,33.7100
2.9822,-0.0540,-0.0760,1.1420,1.9240,53.9240,-36.6870,33.8500
2.9942,-0.0880,-0.0670,1.1650,5.2980,54.5800,-38.0310,33.8900
3.0012,-0.1160,-0.0500,1.1990,4.7790,55.0530,-39.2980,33.8500
3.0132,-0.1930,-0.0240,1.2260,3.3740,43.7250,-40.7480,33.7500
3.0193,-0.1050,-0.0560,1.1670,0.7480,76.1220,-45.8470,33.8000
3.0325,-0.1810,-0.0170,1.3250,-18.8700,68.7180,-46.9620,33.7500
3.0442,-0.1250,-0.0460,1.2430,-19.8930,58.9770,-46.9620,33.7500
3.0513,-0.1230,-0.0640,1.1780,-10.5500,61.1600,-47.6030,33.8000
3.0630,-0.1550,-0.0590,1.1880,-5.0690,53.9390,-47.7860,33.8500
3.0750,-0.1480,-0.0490,1.1730,-2.7180,49.2210,-46.6260,33.8000
3.0819,-0.1340,-0.0440,1.1850,-0.7630,48.2440,-44.3210,33.8500
3.0939,-0.1320,-0.0230,1.2640,-0.4120,49.8020,-42.7940,33.9400
3.1009,-0.1980,0.0010,1.3330,-13.0690,52.4580,-41.2670,33.8900
3.1127,-0.1910,-0.0160,1.2800,-11.7860,41.5270,-42.7330,33.8500
3.1248,-0.1950,-0.0220,1.2490,-13.1150,45.4500,-43.6950,33.8000
3.1315,-0.1990,-0.0390,1.2630,-16.4580,38.6110,-45.4050,33.7500
3.1435,-0.1430,-0.0580,1.1980,-13.5420,43.3890,-45.7860,33.8500
3.1552,-0.1680,-0.0590,1.2180,-12.9470,36.1530,-45.5110,33.8000
3.1622,-0.1680,-0.0450,1.2040,-10.2750,30.5190,-42.5040,33.8500
3.1741,-0.2040,-0.0230,1.2530,-5.4810,22.5500,-40.7940,33.8000
3.1808,-0.2190,-0.0170,1.2710,-4.9310,21.2060,-40.8090,33.8000
3.1928,-0.2300,-0.0170,1.2980,-7.4660,17.7250,-42.5040,33.7500
3.2050,-0.2080,-0.0200,1.3110,-11.9690,17.8320,-43.1600,33.8000
3.2118,-0.2130,-0.0340,1.2760,-14.4580,12.8550,-44.6410,33.7500
3.2235,-0.1980,-0.0530,1.2440,-14.8090,11.3590,-45.8020,33.7500
3.2303,-0.1870,-0.0610,1.1830,-13.8630,8.3660,-46.1830,33.8000
3.2424,-0.1740,-0.0890,1.1410,-13.5730,4.0150,-45.7400,33.9400
3.2545,-0.1700,-0.0910,1.1470,-9.6640,6.7330,-46.0000,33.8900
3.2612,-0.1700,-0.0960,1.1460,-6.8700,10.2600,-47.2520,33.7500
3.2734,-0.1560,-0.1040,1.1680,-8.1220,11.0380,-46.9010,33.8500
3.2791,-0.1350,-0.1040,1.1480,-10.0000,8.9620,-44.4890,33.8000
3.2924,-0.1300,-0.1070,1.1310,-8.6870,6.9620,-42.0000,33.9400
3.3042,-0.1710,-0.1150,1.1310,-6.1980,6.4270,-41.4350,33.8900
3.3114,-0.1680,-0.1050,1.1290,-3.6180,5.1600,-42.9470,33.8000
3.3233,-0.1650,-0.0890,1.1740,-3.0840,4.8550,-43.2980,33.8500
3.3303,-0.1710,-0.0710,1.1780,-4.6870,5.5270,-44.2600,33.8900
3.3425,-0.1470,-0.0900,1.1690,-4.1830,7.9080,-46.3360,33.8500
3.3546,-0.1140,-0.0940,1.1440,-3.5570,10.9920,-46.3970,33.8900
3.3613,-0.1220,-0.1110,1.1560,-2.5950,8.9770,-45.7250,33.8000
3.3737,-0.1000,-0.0950,1.1620,-2.7020,7.0380,-44.1980,33.7500
3.3802,-0.0950,-0.1000,1.1460,-1.8020,7.7250,-41.4050,33.8000
3.3928,-0.1200,-0.0870,1.1220,0.4270,5.7100,-41.3890,33.8500
3.4047,-0.1390,-0.0900,1.1270,3.1300,6.7020,-43.4500,33.8500
3.4115,-0.1120,-0.0810,1.1720,4.1680,5.7860,-44.1680,33.8000
3.4238,-0.1000,-0.0670,1.1970,1.5110,4.1830,-44.2290,33.8500
3.4307,-0.0850,-0.0710,1.2010,-3.6950,5.0080,-43.2670,33.8000
3.4429,-0.1030,-0.0760,1.1870,-5.9390,6.0920,-42.5650,33.8500
3.4549,-0.1090,-0.0710,1.1920,-6.6870,9.1150,-42.7180,33.7500
3.4620,-0.1140,-0.0650,1.2010,-6.0310,7.6490,-42.6410,33.7500
3.4740,-0.0760,-0.0910,1.1730,-5.1600,4.8850,-42.0150,33.8500
3.4812,-0.0670,-0.0830,1.1580,-1.5110,7.2210,-42.1980,33.8900
3.4931,-0.0780,-0.0930,1.1550,1.2520,10.1220,-42.3510,33.8000
3.5052,-0.0730,-0.0770,1.1820,0.4580,9.4960,-42.6110,33.8500
3.5122,-0.0360,-0.0830,1.1520,-1.1300,14.3510,-42.2750,33.8900
3.5243,-0.0770,-0.0850,1.1670,-1.1150,18.5190,-42.6720,33.8500
3.5313,-0.0630,-0.0670,1.2050,-5.1450,21.7100,-41.5270,33.8000
3.5431,-0.0500,-0.0430,1.2580,-12.4890,25.6340,-38.5950,33.8900
3.5548,-0.1060,-0.0650,1.2120,-15.4960,22.5500,-38.4430,33.9400
3.5616,-0.1160,-0.0730,1.1530,-17.5880,28.0150,-41.6030,33.8900
3.5738,-0.1110,-0.1000,1.1420,-18.5340,30.2440,-44.2600,33.8500
3.5804,-0.0870,-0.1100,1.1200,-16.3510,28.5800,-44.9010,33.8500
3.5926,-0.1210,-0.1180,1.1120,-11.4350,25.4050,-46.6110,33.8500
3.6043,-0.1100,-0.1140,1.1380,-7.9690,20.1370,-47.9240,33.8500
3.6113,-0.1140,-0.1000,1.1630,-6.7940,16.1070,-46.3360,33.7100
3.6235,-0.1400,-0.0970,1.1840,-5.6030,10.8700,-45.2370,33.8500
3.6352,-0.1340,-0.0790,1.2040,-4.9470,10.2290,-43.4200,33.9400
3.6423,-0.1200,-0.0690,1.2420,-5.5570,8.7630,-41.5110,33.8900
3.6542,-0.1450,-0.0710,1.2240,-8.0000,3.2060,-41.7250,33.8500
3.6609,-0.1210,-0.0940,1.2100,-7.6030,4.2440,-43.1300,33.8000
3.6734,-0.0990,-0.1040,1.2190,-9.0990,4.9160,-44.2600,33.8900
3.6787,-0.1070,-0.1360,1.2180,-8.9920,2.5040,-46.2750,33.8500
3.6924,-0.0760,-0.1050,1.2490,-16.0920,5.0530,-42.6110,33.8000
3.7042,-0.0420,-0.1140,1.1720,-17.4500,8.8700,-41.1150,33.8500
3.7113,-0.0890,-0.0940,1.1970,-12.7180,3.4200,-39.6340,33.8900
3.7232,-0.0920,-0.1170,1.2010,-11.1600,1.5730,-39.0990,33.8500
3.7350,-0.1140,-0.1230,1.1800,-9.4960,1.2210,-41.6030,33.7500
3.7418,-0.0890,-0.1300,1.2080,-7.3590,5.9540,-44.3050,33.8000
3.7541,-0.0590,-0.1260,1.2360,-8.3360,10.6110,-45.2980,33.7500
3.7608,-0.0610,-0.1250,1.2090,-8.9620,11.3440,-44.9310,33.8500
3.7729,-0.0430,-0.1250,1.1960,-4.7480,12.2750,-44.6410,33.8000
3.7851,-0.0460,-0.1200,1.2120,-6.2140,9.8780,-43.3590,33.8500
3.7919,-0.0610,-0.1120,1.2100,-5.1760,7.8320,-43.0380,33.8900
3.8041,-0.0560,-0.1270,1.2370,-5.6640,5.8170,-43.7100,33.7500
3.8109,-0.0260,-0.1180,1.2350,-6.9160,5.4200,-43.0230,33.9400
3.8232,-0.0190,-0.1250,1.2300,-7.5730,3.0690,-40.9160,33.8000
3.8351,-0.0030,-0.1350,1.1830,-5.2670,6.2140,-39.7250,33.8500
3.8423,0.0120,-0.1410,1.1840,0.3360,9.5570,-37.4810,33.8900
3.8543,-0.0080,-0.1240,1.2110,4.6110,12.8700,-36.4270,33.8500
3.8614,-0.0430,-0.1020,1.2570,4.2290,14.2750,-37.6640,33.9400
3.8736,-0.0910,-0.0880,1.2710,-2.0150,13.1450,-39.8320,33.8000
3.8802,-0.0810,-0.1020,1.2250,-3.7560,17.8020,-42.5040,33.7500
3.8925,-0.0730,-0.1140,1.2170,-3.4350,20.3820,-45.4960,33.8900
3.9045,-0.0560,-0.1290,1.2210,-3.5420,22.9160,-48.2750,33.8500
3.9115,-0.0420,-0.1530,1.2030,-3.8630,27.9690,-49.8170,33.8500
3.9234,-0.0320,-0.1370,1.1810,-8.0460,26.2440,-50.5040,33.8000
3.9352,-0.0270,-0.1490,1.1680,-7.3440,26.3210,-49.2520,33.8500
3.9423,-0.0110,-0.1470,1.1580,-7.7400,24.7020,-46.1980,33.8000
3.9542,-0.0160,-0.1380,1.1650,-6.8240,17.8470,-42.4730,33.7500
3.9611,-0.0210,-0.1230,1.2040,-6.7480,4.0920,-38.0610,33.8500
3.9733,-0.0170,-0.1060,1.2410,-4.3050,-2.0610,-35.4200,33.8900
3.9853,-0.0340,-0.1010,1.2290,-4.3970,-3.8780,-35.0080,33.7500
3.9919,-0.0550,-0.0980,1.1820,-2.5950,-5.4200,-36.0460,33.8000
