Time AX AY AZ GX GY GZ
0.0194431249999951 0.572 0.227 0.692 4.046 -10.023 -7.382
0.0262943339999992 0.608 0.223 0.713 6.069 -13.076 -7.405
0.0383558339999865 0.614 0.232 0.723 6.832 -10.71 -7.328
0.050720083999991 0.649 0.229 0.72 7.305 -7.832 -7.053
0.0574829169999873 0.676 0.242 0.739 7.511 -4.885 -6.359
0.0697050419999953 0.656 0.257 0.785 4.885 1.779 -6.321
0.0766176669999936 0.647 0.26 0.776 1.153 9.931 -6.687
0.088942166999999 0.635 0.246 0.746 -1.237 13.55 -6.779
0.1009220839999898 0.625 0.241 0.713 -1.573 11.13 -5.87
0.1080229169999995 0.605 0.245 0.71 -0.45 5.947 -6.122
0.1200392499999907 0.627 0.259 0.708 1.519 -2.794 -6.084
0.1273219589999996 0.635 0.256 0.713 2.824 -10.137 -5.137
0.139101208999989 0.636 0.26 0.75 2.58 -11.901 -4.702
0.1511567919999947 0.64 0.254 0.73 2.496 -9.061 -4.664
0.1584116249999994 0.635 0.247 0.704 3.183 -5.466 -5.008
0.1704782089999952 0.646 0.259 0.682 4.481 -4.557 -5.557
0.1778303749999992 0.678 0.271 0.691 5.305 -4.237 -5.427
0.1895408339999988 0.71 0.287 0.731 4.947 1.435 -3.878
0.1965908339999913 0.679 0.287 0.759 3.389 11.504 -2.527
0.2086173749999886 0.628 0.27 0.735 2.359 15.397 -1.504
0.2206680419999998 0.59 0.27 0.702 2.29 6.611 0.008
0.2279790839999975 0.571 0.263 0.702 2.557 -6.16 0.115
0.2397727919999965 0.597 0.25 0.717 3.366 -16.122 -0.878
0.2470804589999886 0.653 0.24 0.751 4.145 -15.443 -1.878
0.259113499999998 0.671 0.247 0.771 3.198 -4.412 -1.389
0.270876458999993 0.67 0.253 0.757 1.824 7.168 -1.084
0.2779478339999883 0.65 0.249 0.738 0.969 13.221 -1.366
0.2899677089999954 0.648 0.253 0.723 0.214 12.634 -0.405
0.2970185419999893 0.665 0.252 0.73 -0.58 10.481 1.771
0.3090896249999986 0.656 0.281 0.758 -2.267 13.771 2.55
0.3212587499999983 0.619 0.28 0.771 -3.504 19.969 1.908
0.3283952089999928 0.559 0.242 0.75 -2.107 20.817 -0.588
0.3402003749999949 0.548 0.23 0.68 1.405 7.16 -2.137
0.347485916999986 0.581 0.249 0.683 6.221 -11.153 -3.42
0.3592953749999878 0.632 0.266 0.753 8.16 -17.374 -4.176
0.3666152919999916 0.676 0.252 0.794 7.573 -7.321 -3.649
0.3787623339999868 0.67 0.251 0.793 5.802 4.664 -1.756
0.3904441249999877 0.671 0.267 0.742 4.282 11.153 -0.496
0.3975033339999925 0.704 0.275 0.722 4.122 13.511 1.046
0.4095285419999896 0.778 0.262 0.771 2.244 22.924 5.13
0.4166272499999905 0.876 0.279 0.853 -3.13 47.641 12.229
0.4285434589999966 0.933 0.31 0.917 -15.435 87.145 21.695
0.4404200419999995 1.021 0.352 0.965 -31.023 134.031 33.359
0.4470192919999931 1.007 0.367 0.985 -49.55 191.672 42.901
0.4588164999999975 0.957 0.354 0.932 -65.046 250.137 51.824
0.4708120419999915 0.707 0.296 0.828 -73.023 250.137 52.771
0.4774813339999895 0.448 0.222 0.659 -72.084 250.137 45.786
0.4896077089999977 0.279 0.146 0.517 -61.504 250.137 38.565
0.4963249589999918 0.237 0.104 0.461 -42.71 250.137 36.939
0.5083373749999964 0.333 0.127 0.562 -21.527 208.534 38.183
0.5203949999999935 0.393 0.184 0.829 -12.26 203.282 34.656
0.5269889999999862 0.428 0.218 1.026 -14.527 243.076 29.038
0.5389019169999898 0.348 0.198 1.033 -22.29 250.137 24.794
0.5508428339999938 0.146 0.177 0.943 -28.099 250.137 18.679
0.557652583999996 0.013 0.156 0.82 -27.908 250.137 15.397
0.5696117499999929 -0.155 0.125 0.78 -22.595 250.137 10.023
0.5767441249999905 -0.105 0.11 0.765 -15.496 224.656 9.237
0.5885685419999902 -0.011 0.155 0.861 -9.427 194.214 10.58
0.6005444169999947 0.133 0.186 1.006 -10.26 194.725 12.282
0.607252583999994 0.129 0.178 1.126 -16.573 230.908 14.557
0.6194298339999875 -0.046 0.151 1.083 -29.282 250.137 14.573
0.626205916999993 -0.201 0.114 0.932 -38.076 250.137 16.847
0.6385619169999899 -0.373 0.101 0.791 -39.924 250.137 16.74
0.650532124999998 -0.413 0.106 0.75 -36.87 219.832 15.176
0.6570465419999891 -0.311 0.129 0.794 -28.71 188.481 16.351
0.6690754589999983 -0.193 0.147 0.917 -18.641 183.084 16.664
0.6748076669999961 -0.188 0.142 1.03 -10.252 211.359 13.389
0.6880575839999921 -0.298 0.143 0.959 -10.397 241.015 7.183
0.7003539589999974 -0.396 0.181 0.852 -14.038 246.198 4.504
0.7070516249999912 -0.489 0.162 0.769 -20.511 236.855 5.885
0.7193649589999893 -0.475 0.154 0.721 -28.962 220.0 8.878
0.7262269589999875 -0.474 0.14 0.742 -38.053 216.916 13.046
0.7381763749999948 -0.498 0.095 0.692 -44.511 229.282 14.008
0.750267916999988 -0.547 0.08 0.629 -39.947 241.321 14.718
0.7569494999999904 -0.624 0.04 0.496 -28.916 242.527 12.84
0.7691224589999877 -0.685 0.058 0.451 -15.504 230.366 11.084
0.7748198339999988 -0.651 0.085 0.445 -1.573 214.885 8.42
0.7882129999999989 -0.708 0.072 0.511 4.809 214.107 5.939
0.8004940419999969 -0.723 0.124 0.536 -2.305 216.366 5.046
0.807233416999992 -0.696 0.135 0.5 -12.695 214.244 8.221
0.8194658749999917 -0.737 0.041 0.509 -19.519 215.198 16.534
0.8263122499999866 -0.932 0.016 0.496 -21.153 219.794 19.244
0.8381183749999934 -1.06 0.032 0.375 -13.008 211.481 15.176
0.8502152919999872 -1.08 0.01 0.284 5.13 185.565 10.038
0.8568628339999975 -1.045 0.031 0.282 20.069 149.603 6.176
0.8690910419999938 -0.966 0.071 0.349 24.298 125.84 3.71
0.8811294169999968 -0.868 0.104 0.376 24.58 120.534 5.916
0.8879119589999931 -0.807 0.119 0.382 18.74 130.664 6.168
0.8998455839999906 -0.774 0.136 0.347 10.489 148.244 8.252
0.9066917089999862 -0.831 0.033 0.366 8.084 174.962 12.573
0.9189825839999912 -1.022 -0.013 0.337 14.336 197.977 17.176
0.9309419589999948 -1.229 0.078 0.217 19.664 191.046 12.16
0.9377759169999962 -1.26 0.122 0.136 29.405 153.046 4.359
0.9496779999999916 -1.276 0.062 0.166 36.496 119.702 -1.779
0.9565140839999912 -1.221 0.069 0.246 37.771 97.863 -4.252
0.968351291999994 -1.208 0.097 0.298 34.206 97.489 -4.71
0.9803391249999862 -1.088 0.12 0.229 27.573 86.038 -4.55
0.9874040839999908 -1.058 0.167 0.251 22.947 74.076 -1.405
0.9994305839999952 -1.085 0.116 0.319 19.015 73.954 2.405
1.006289124999995 -1.125 0.058 0.278 15.885 84.229 5.802
1.0183964999999944 -1.198 0.092 0.17 15.519 86.84 2.718
1.0303107919999943 -1.183 0.122 0.047 18.55 70.076 -4.183
1.0370055419999886 -1.169 0.095 0.059 24.252 56.473 -11.542
1.0491827919999963 -1.092 0.108 0.052 27.893 41.145 -16.443
1.0611294999999927 -1.038 0.102 0.131 28.802 34.878 -16.008
1.0678409589999944 -1.041 0.049 0.169 25.305 40.595 -10.282
1.0798572919999998 -1.04 0.086 0.135 18.328 37.634 -2.771
1.0865665839999965 -1.07 0.149 0.118 10.145 22.603 1.824
1.0991456249999914 -1.105 0.158 0.128 5.664 9.282 1.374
1.1060659999999984 -1.056 0.164 0.11 2.359 -3.328 -0.13
1.1183680839999963 -1.015 0.159 0.125 2.786 -8.046 -2.252
1.1305913339999876 -0.984 0.132 0.119 3.748 -6.55 -3.305
1.137709333999993 -0.949 0.113 0.094 2.977 -2.26 -2.061
1.1498972089999882 -0.899 0.126 -0.007 2.962 -6.481 -0.71
1.1569830419999931 -0.874 0.12 -0.007 9.588 -8.061 0.237
1.1691422919999894 -0.901 0.111 0.072 15.015 1.374 2.099
1.1763295419999906 -0.921 0.166 0.137 16.16 9.832 2.611
1.1888092089999986 -0.947 0.213 0.197 12.115 14.954 5.176
1.2006838749999955 -1.0 0.223 0.225 4.893 12.832 7.252
1.208032249999988 -1.046 0.18 0.224 -5.206 10.977 8.504
1.220057374999996 -1.092 0.093 0.174 -13.176 10.618 9.069
1.22727562499999 -1.075 0.072 0.012 -11.687 3.069 8.878
1.2393646669999896 -1.086 0.08 -0.039 -0.863 -8.26 4.29
1.2467413339999922 -1.05 0.073 -0.023 11.809 -14.183 0.359
1.2586789589999938 -1.006 0.068 0.016 19.901 -18.252 0.931
1.2706717089999984 -1.011 0.112 0.08 19.573 -21.718 2.565
1.2777026249999892 -0.995 0.104 0.139 14.42 -21.71 4.229
1.2900139589999924 -1.01 0.104 0.203 5.618 -17.206 5.45
1.2972728749999902 -1.008 0.159 0.184 -3.275 -14.557 3.206
1.3092858749999865 -1.004 0.198 0.191 -10.58 -13.008 -0.038
1.316572624999992 -0.933 0.189 0.158 -10.985 -7.55 -0.695
1.328842709 -0.97 0.117 0.144 -7.344 8.374 0.45
1.3409649169999938 -1.007 0.071 0.123 -1.763 28.359 1.618
1.3482137919999957 -1.051 0.076 0.026 3.42 32.489 3.779
1.3599537919999989 -1.092 0.097 -0.009 7.565 17.924 5.122
1.3674911669999972 -1.111 0.116 0.012 7.13 -6.145 4.099
1.379541458999995 -1.073 0.147 0.055 3.076 -26.794 1.053
1.3868532089999943 -1.037 0.182 0.156 -3.794 -37.374 -2.603
1.39888333399999 -0.973 0.178 0.223 -10.427 -30.191 -4.206
1.4109256249999902 -0.919 0.12 0.217 -12.282 -10.336 -0.771
1.4182232919999933 -0.927 0.098 0.171 -8.824 13.198 2.74
1.4302039999999892 -0.977 0.114 0.096 -2.87 26.618 5.435
1.4374679169999922 -1.023 0.13 0.02 0.015 21.359 5.076
1.4494959999999963 -1.068 0.084 0.017 0.977 7.458 3.695
1.457060833999989 -1.098 0.08 0.047 1.382 -5.527 0.847
1.4690477919999978 -1.083 0.123 0.078 1.145 -15.595 -1.725
1.4811480419999867 -1.026 0.171 0.112 -2.427 -24.763 -2.847
1.4883814169999994 -0.965 0.175 0.146 -6.351 -30.366 -1.908
1.500645917 -0.903 0.122 0.145 -5.328 -24.687 2.817
1.507926416999993 -0.957 0.119 0.166 -2.725 -8.206 4.237
1.5201741669999933 -0.976 0.09 0.126 -1.916 10.321 3.107
1.5274945839999958 -1.001 0.052 0.066 -0.725 20.901 2.947
1.5396591669999964 -1.059 0.061 0.055 1.748 23.534 1.29
1.5467332089999957 -1.101 0.109 0.049 3.786 15.481 -1.443
1.5586778339999938 -1.066 0.141 0.019 4.145 -4.634 -3.168
1.5706204999999898 -1.019 0.159 0.061 2.74 -26.397 -3.168
1.5780522919999953 -0.98 0.135 0.116 1.153 -32.481 -1.435
1.5899657919999868 -0.971 0.111 0.156 0.252 -21.847 0.305
1.597198416999987 -0.969 0.106 0.162 -0.458 -3.511 0.115
1.60956075 -0.986 0.13 0.155 -0.092 12.71 0.023
1.6168266249999874 -1.007 0.16 0.124 0.008 17.351 -0.786
1.628855499999986 -1.014 0.161 0.095 -0.198 12.153 -1.092
1.640877416999999 -1.016 0.127 0.091 0.374 1.702 0.916
1.6482118339999945 -1.024 0.117 0.097 0.634 -7.702 1.557
1.6604404169999896 -1.014 0.127 0.103 0.756 -12.008 2.672
1.667718708999999 -0.993 0.142 0.092 0.962 -15.779 2.962
1.6797522919999892 -0.975 0.157 0.095 0.55 -17.748 2.427
1.6870590839999977 -0.958 0.157 0.119 -0.817 -17.802 2.84
1.6992834169999895 -0.963 0.138 0.135 -3.305 -12.557 2.55
1.7068234999999987 -0.937 0.095 0.106 -4.092 -5.321 4.176
1.7190783749999952 -0.953 0.065 0.058 -1.969 -0.053 4.588
1.7311874169999868 -0.955 0.051 0.029 2.885 4.145 3.191
1.7385451249999877 -0.992 0.079 0.042 7.489 6.099 2.275
1.7504911669999927 -0.999 0.123 0.051 9.771 3.969 2.557
1.7578083749999962 -1.007 0.158 0.073 9.267 -5.351 3.282
1.769888624999993 -1.011 0.167 0.12 4.824 -15.824 3.718
1.7774523339999888 -0.993 0.162 0.157 -0.641 -20.863 3.832
1.789497833999988 -0.991 0.146 0.194 -5.275 -15.511 3.641
1.7968852499999883 -0.957 0.134 0.149 -7.298 -7.206 3.672
1.808946249999991 -0.944 0.108 0.099 -3.74 2.351 3.809
1.8211444999999884 -0.988 0.109 0.099 0.321 12.771 3.74
1.8285253339999912 -1.01 0.126 0.073 4.427 17.947 3.366
1.8404939999999923 -1.021 0.131 0.058 6.603 12.023 4.481
1.847744374999991 -1.039 0.145 0.051 6.931 -2.527 5.489
1.8601232919999973 -1.045 0.133 0.107 5.504 -12.145 3.794
1.8670388749999915 -1.033 0.126 0.147 5.061 -12.076 3.527
1.8793591669999896 -1.032 0.144 0.165 3.328 -7.412 3.595
1.8865246249999927 -1.018 0.175 0.148 0.45 -6.351 2.481
1.8989057089999903 -0.993 0.163 0.133 -1.672 -8.359 2.733
1.9046283339999943 -0.98 0.123 0.117 -1.565 -6.725 3.885
1.9184425839999903 -0.994 0.1 0.116 0.611 -1.122 4.588
1.9306409999999945 -1.0 0.098 0.089 5.649 5.931 4.87
1.9379586669999895 -1.032 0.123 0.087 10.298 9.298 4.473
1.950067874999988 -1.05 0.145 0.088 12.046 5.71 3.229
1.9572829999999897 -1.05 0.198 0.116 10.74 -5.473 2.153
1.969293249999993 -1.039 0.216 0.15 5.412 -16.733 0.237
1.976938374999989 -1.009 0.195 0.208 -2.672 -19.435 0.405
1.9888220419999951 -1.002 0.169 0.241 -10.412 -13.313 1.481
2.0012354169999895 -0.985 0.116 0.191 -15.275 -0.557 1.924
2.0080057499999953 -0.973 0.079 0.107 -12.16 10.58 2.878
2.0204409589999983 -1.01 0.099 0.05 -4.176 16.565 2.038
2.0274965839999908 -1.042 0.119 0.034 4.611 17.328 -0.427
2.0395207919999905 -1.027 0.127 0.033 11.489 8.061 1.115
2.046718249999998 -1.046 0.178 0.074 12.893 -8.603 1.756
2.0590038749999877 -1.038 0.196 0.141 7.397 -21.969 0.16
2.0709024999999883 -0.993 0.151 0.189 0.473 -22.733 -0.42
2.078179917 -0.979 0.136 0.216 -3.214 -10.191 -1.328
2.0904654999999934 -0.991 0.133 0.224 -5.534 9.977 -3.214
2.097469541999999 -0.991 0.117 0.169 -4.962 26.855 -2.725
2.1095207499999873 -0.992 0.14 0.073 0.168 27.626 0.29
2.1167840839999883 -1.034 0.183 0.046 4.802 13.008 1.206
2.129071874999994 -1.011 0.204 0.026 8.084 -9.504 2.153
2.1411618339999876 -1.012 0.192 0.125 8.382 -24.031 2.855
2.1484866249999897 -0.995 0.153 0.179 5.664 -23.718 2.908
2.160404416999995 -0.984 0.119 0.183 1.496 -14.466 3.015
2.1679659999999927 -0.976 0.115 0.167 -2.092 -3.649 1.908
2.1802494589999952 -0.976 0.128 0.134 -2.672 5.252 0.107
2.1873057919999894 -0.964 0.142 0.098 2.099 11.244 -1.244
2.199414791999999 -0.99 0.153 0.093 8.168 14.626 -1.0
2.2112286249999897 -1.003 0.166 0.089 11.969 12.221 0.038
2.2184761669999915 -1.017 0.179 0.108 12.168 2.916 2.389
2.230687374999988 -1.029 0.17 0.136 8.336 -8.481 4.053
2.2379569999999944 -1.045 0.155 0.158 2.916 -15.076 3.794
2.2499578749999927 -1.044 0.153 0.189 -2.718 -14.13 1.191
2.2574787919999864 -1.007 0.169 0.171 -5.863 -9.802 -1.092
2.269568958999997 -0.965 0.17 0.144 -3.267 -4.916 -1.786
2.276830708999995 -0.968 0.143 0.142 -0.702 2.008 -1.87
2.2888213339999908 -0.953 0.143 0.122 1.137 6.084 -0.366
2.3011646249999984 -0.976 0.157 0.117 2.618 5.473 1.267
2.308390708999994 -0.995 0.157 0.104 2.275 1.198 1.557
2.3203885419999892 -0.999 0.138 0.124 1.71 -1.992 1.015
2.328054583999986 -1.012 0.15 0.15 0.672 -3.832 0.924
2.339947374999994 -1.0 0.18 0.145 0.374 -3.565 0.802
2.347542874999988 -0.995 0.173 0.164 -0.008 -2.046 0.817
2.359843708999989 -0.986 0.167 0.148 -0.031 -0.771 1.466
2.3670618339999976 -0.979 0.154 0.11 1.229 0.443 1.916
2.379075125 -1.014 0.113 0.117 2.221 3.13 2.053
2.385144749999995 -1.022 0.098 0.107 3.618 4.656 2.244
2.3986087919999903 -1.033 0.135 0.099 4.733 -0.382 2.527
2.4107574999999883 -1.031 0.188 0.105 3.573 -11.252 1.542
2.4179283749999883 -0.971 0.223 0.123 2.634 -23.473 1.305
2.430307749999997 -0.966 0.229 0.202 1.55 -25.756 1.344
2.437505041999998 -0.95 0.186 0.239 -1.527 -13.13 2.13
2.449760708999989 -0.948 0.113 0.192 -3.397 5.855 4.664
2.4570389589999877 -1.003 0.062 0.116 -3.198 20.634 4.885
2.4691514999999953 -1.053 0.073 0.068 0.481 25.046 2.321
2.480915541999991 -1.075 0.115 0.024 6.802 15.626 -0.565
2.4882173749999907 -1.074 0.16 0.032 10.641 -4.298 -1.328
2.5001989169999916 -1.028 0.201 0.099 10.802 -25.435 -0.603
