Time AX AY AZ GX GY GZ
0.019633749999997 0.556 0.187 0.853 -5.893 32.115 1.344
0.031760915999996 0.477 0.154 0.769 -6.015 23.313 -0.023
0.0385302910000007 0.455 0.135 0.715 -3.504 6.427 -1.779
0.0507947910000012 0.477 0.126 0.718 0.763 -8.977 -2.832
0.0580254159999924 0.546 0.129 0.742 3.527 -17.405 -3.214
0.0699285829999922 0.604 0.153 0.799 4.985 -17.969 -2.389
0.082066999999995 0.614 0.168 0.849 4.58 -9.504 -1.069
0.0894163329999884 0.577 0.175 0.864 1.405 3.069 -0.595
0.1013664999999974 0.558 0.177 0.795 -0.885 7.649 -1.351
0.1084399159999947 0.555 0.187 0.762 -1.336 4.435 -1.863
0.1204824999999942 0.576 0.181 0.765 -0.55 0.817 -0.863
0.1325713330000013 0.582 0.18 0.777 -1.504 0.458 -0.13
0.1398119579999956 0.583 0.17 0.762 -1.008 0.458 0.107
0.1520997499999907 0.535 0.146 0.77 -0.168 -0.618 -0.55
0.1590989580000013 0.469 0.117 0.769 2.679 -1.359 -1.664
0.1711719999999985 0.422 0.101 0.736 5.305 -7.015 -4.634
0.1785045409999952 0.464 0.116 0.695 8.649 -21.313 -7.183
0.1902652499999959 0.556 0.146 0.75 10.939 -31.29 -7.435
0.2020160000000004 0.654 0.177 0.833 10.26 -25.71 -5.198
0.2092154579999885 0.711 0.196 0.868 5.802 -10.206 -1.076
0.221432374999992 0.69 0.195 0.896 0.229 9.824 1.756
0.2284348749999907 0.627 0.185 0.84 -4.13 26.397 2.389
0.2405320000000017 0.543 0.16 0.77 -5.588 31.282 2.267
0.2525683749999956 0.472 0.137 0.696 -3.137 22.038 1.74
0.2596667079999974 0.425 0.121 0.674 2.13 4.672 0.214
0.2720029580000016 0.428 0.111 0.678 7.405 -11.969 -2.252
0.2792309999999958 0.502 0.129 0.696 11.29 -24.992 -4.023
0.2908078329999881 0.565 0.166 0.759 13.13 -29.198 -5.038
0.3027202079999966 0.626 0.195 0.833 11.29 -22.481 -4.053
0.3096434579999965 0.644 0.208 0.878 6.87 -7.496 -3.046
0.3217910829999937 0.614 0.19 0.848 2.229 7.687 -2.458
0.3285000409999981 0.569 0.177 0.802 -0.336 14.45 -1.069
0.3407881249999889 0.572 0.139 0.755 -1.466 14.0 -4.206
0.3475524579999955 0.544 0.131 0.742 0.092 9.634 -2.641
0.3597723749999915 0.533 0.145 0.73 3.374 2.573 -0.847
0.3720713329999938 0.517 0.164 0.74 6.977 -4.389 -2.137
0.3788124579999987 0.527 0.16 0.768 9.893 -8.733 -3.939
0.3910773329999983 0.565 0.165 0.779 11.206 -12.168 -3.443
0.3979475409999935 0.592 0.179 0.792 10.382 -14.481 -2.16
0.4098058749999893 0.609 0.197 0.827 7.023 -11.74 -1.557
0.4220248329999947 0.631 0.208 0.837 2.565 -6.069 -2.611
0.4290170409999945 0.635 0.203 0.833 -0.695 1.832 -2.809
0.4412002910000012 0.608 0.181 0.812 -2.176 9.168 -2.618
0.4479136659999909 0.579 0.166 0.759 -1.107 10.305 -1.878
0.4601609159999924 0.554 0.154 0.745 2.336 7.076 -1.504
0.4725377909999935 0.531 0.155 0.73 5.305 2.061 -1.527
0.4791890409999979 0.543 0.152 0.757 7.305 -3.038 -1.351
0.4914454580000011 0.573 0.167 0.772 8.771 -5.29 -0.878
0.4984836659999985 0.584 0.18 0.8 8.26 -5.405 -0.794
0.5107293749999968 0.621 0.196 0.828 5.214 -3.893 -1.832
0.5175090409999967 0.66 0.213 0.866 2.198 4.656 -3.26
0.5298186249999901 0.665 0.199 0.906 -1.863 21.641 -2.916
0.5420497499999897 0.691 0.194 0.888 -6.664 37.305 0.656
0.5490501249999937 0.688 0.195 0.855 -9.885 47.183 5.13
0.5610074579999917 0.643 0.2 0.823 -10.229 54.573 7.344
0.5681441659999962 0.578 0.179 0.816 -9.176 58.366 7.687
0.5802976659999928 0.526 0.151 0.811 -8.107 56.557 7.832
0.5924694160000001 0.492 0.155 0.818 -7.939 49.847 6.527
0.5997457499999967 0.517 0.167 0.828 -8.611 44.198 4.702
0.6116659159999926 0.586 0.179 0.868 -10.084 46.092 5.298
0.6186259579999955 0.67 0.186 0.94 -13.153 58.817 8.748
0.6304952909999884 0.734 0.187 0.994 -18.26 82.534 13.634
0.6425470410000003 0.771 0.176 1.01 -23.679 113.42 19.733
0.6494072909999886 0.752 0.171 0.994 -28.588 148.336 25.939
0.6614434159999973 0.673 0.166 0.955 -32.321 180.985 30.878
0.6682698749999929 0.571 0.157 0.875 -33.672 204.244 34.168
0.6799610829999949 0.476 0.126 0.781 -30.756 209.962 35.802
0.6917492079999903 0.384 0.092 0.748 -24.229 204.817 36.26
0.698486625000001 0.288 0.077 0.772 -16.939 195.084 34.649
0.710559915999994 0.218 0.078 0.784 -10.458 183.893 30.618
0.722492625000001 0.139 0.086 0.831 -5.267 172.672 25.115
0.7292576249999883 0.074 0.09 0.856 -2.901 158.771 18.954
0.7415851250000003 0.015 0.108 0.869 -0.947 140.901 12.351
0.748315415999997 0.0 0.113 0.866 1.496 118.802 7.229
0.7602869159999983 0.04 0.123 0.922 0.992 98.038 1.565
0.772582290999992 0.183 0.119 0.972 -1.947 86.908 4.855
0.779606957999988 0.27 0.135 1.044 -8.122 89.779 12.489
0.7916131659999905 0.259 0.15 1.094 -15.412 110.595 14.481
0.7981229579999933 0.209 0.126 1.069 -20.832 133.756 15.557
0.8102729159999882 0.109 0.095 0.97 -22.489 143.435 15.282
0.8222916659999981 -0.004 0.091 0.887 -19.809 134.252 11.229
0.8293599579999977 -0.092 0.081 0.865 -14.336 117.664 5.443
0.8413513329999915 -0.107 0.05 0.86 -6.939 99.519 0.115
0.8486881249999954 -0.084 0.048 0.886 0.137 81.458 -1.832
0.8604962080000007 -0.019 0.063 0.962 3.427 74.015 -1.55
0.8725208749999922 0.116 0.062 1.014 1.626 83.496 3.756
0.879585457999994 0.15 0.092 1.086 -1.893 108.405 9.305
0.8916327499999994 0.119 0.095 1.088 -4.588 142.137 11.221
0.8986464580000018 0.005 0.106 1.057 -4.038 170.046 4.641
0.9107010829999922 -0.077 0.064 0.976 -0.168 181.0 2.229
0.916492582999993 -0.226 0.075 0.926 5.771 174.366 1.847
0.9295715829999978 -0.351 0.097 0.866 11.924 151.336 -2.061
0.9415120409999956 -0.425 0.117 0.857 16.511 119.099 -7.313
0.9484458749999902 -0.398 0.116 0.845 19.061 84.977 -8.763
0.9605057909999886 -0.305 0.117 0.913 16.496 60.74 -6.366
0.9724312499999996 -0.245 0.118 1.014 9.809 56.718 -0.168
0.9796649999999972 -0.259 0.12 1.04 1.038 68.573 5.244
0.991612540999995 -0.282 0.095 1.006 -6.985 81.183 7.328
0.9986626249999944 -0.325 0.076 0.947 -10.756 85.489 8.931
1.0108738750000017 -0.376 0.067 0.888 -9.756 79.947 8.557
1.0179749999999927 -0.396 0.063 0.869 -4.84 69.298 6.504
1.0302019999999883 -0.357 0.087 0.895 -1.16 58.16 4.053
1.0424635409999894 -0.281 0.126 0.95 -0.313 56.542 1.519
1.049438041000002 -0.223 0.155 1.043 -4.092 75.496 0.046
1.061739290999995 -0.193 0.138 1.068 -12.885 110.824 1.252
1.0684442499999989 -0.249 0.091 1.008 -21.779 143.847 3.939
1.080741040999996 -0.365 0.059 0.919 -25.252 163.412 7.985
1.087569375000001 -0.568 0.073 0.862 -24.519 165.069 -3.534
1.0995045410000015 -0.5 0.001 0.756 -18.931 150.84 -2.099
1.1117624580000012 -0.565 0.04 0.747 -11.832 128.275 4.985
1.1185007499999955 -0.557 0.067 0.748 -4.985 105.366 9.679
1.1310171249999996 -0.499 0.127 0.791 -1.664 88.16 7.832
1.1380547910000018 -0.458 0.161 0.905 -5.397 92.824 4.718
1.1502123749999953 -0.432 0.156 0.956 -11.832 115.588 5.519
1.1623301249999969 -0.496 0.177 0.912 -20.87 137.176 -4.878
1.1691625409999915 -0.412 0.076 0.811 -27.305 151.275 -2.527
1.1811027499999938 -0.484 0.041 0.729 -26.969 158.183 8.55
1.188125332999988 -0.608 0.015 0.659 -22.397 151.969 16.71
1.200295124999997 -0.716 0.031 0.622 -15.344 131.977 19.603
1.2120641249999975 -0.759 0.043 0.618 -10.115 106.58 17.672
1.2194085409999929 -0.752 0.043 0.667 -5.824 86.618 17.168
1.231395040999999 -0.792 0.145 0.754 -5.855 80.16 1.122
1.2384858329999986 -0.609 0.117 0.823 -11.351 90.099 -2.45
1.250579375000001 -0.566 0.136 0.771 -14.679 109.16 2.313
1.262495415999993 -0.563 0.107 0.686 -15.122 119.076 4.153
1.2696077499999916 -0.563 0.072 0.663 -14.168 126.481 5.641
1.281384249999988 -0.614 0.031 0.698 -16.092 140.58 10.16
1.2884839580000005 -0.731 0.006 0.636 -16.366 153.557 15.763
1.3004880409999942 -0.863 0.001 0.516 -12.542 145.275 18.489
1.3122750409999924 -0.923 0.038 0.472 -9.55 120.649 19.611
1.3195793749999891 -0.887 0.073 0.45 -5.71 93.008 18.954
1.331582499999996 -0.799 0.112 0.507 -2.458 77.527 17.855
1.3389326249999982 -0.743 0.126 0.619 -4.878 87.885 13.771
1.350790707999991 -0.745 0.083 0.639 -8.405 114.779 14.992
1.357997915999988 -0.935 0.11 0.534 -6.435 132.435 2.84
1.370049624999993 -0.802 -0.008 0.457 -4.695 135.336 -0.687
1.3821717499999977 -0.812 -0.006 0.371 2.176 125.916 14.634
1.3892170409999949 -0.834 0.055 0.386 6.397 110.588 25.748
1.4009574159999971 -0.861 0.126 0.447 5.763 105.641 24.809
1.4081047079999962 -0.895 0.146 0.515 3.565 116.603 18.817
1.4199764579999936 -0.969 0.131 0.51 0.962 129.656 12.901
1.4318433749999997 -1.027 0.102 0.376 0.977 126.756 5.916
1.4388983749999935 -0.98 0.068 0.273 4.13 110.359 2.863
1.4509186659999926 -0.922 0.081 0.29 5.908 97.45 4.672
1.4582847079999937 -0.829 0.068 0.341 0.519 99.557 10.847
1.4700582910000008 -0.8 0.056 0.379 -9.366 117.992 20.313
1.4820572080000003 -0.825 0.031 0.329 -17.985 136.802 30.962
1.4891551249999964 -0.971 0.113 0.298 -23.244 145.374 34.031
1.5010466250000007 -1.033 0.171 0.241 -27.092 142.13 29.832
1.5080361659999966 -1.061 0.199 0.185 -24.305 130.702 24.939
1.5198118749999878 -1.011 0.167 0.135 -22.092 120.74 20.107
1.531899624999994 -0.968 0.153 0.08 -17.053 120.115 12.008
1.5387369580000012 -0.807 0.038 0.158 -20.015 143.366 13.542
1.5505827499999896 -0.814 0.031 0.003 -20.611 167.771 29.29
1.5624803329999963 -0.992 0.076 -0.05 -13.26 170.069 31.221
1.569373290999991 -1.075 0.083 -0.047 -4.649 159.718 27.931
1.5813087079999946 -1.067 0.099 -0.016 0.13 144.947 31.214
1.5884647079999894 -1.153 0.141 -0.021 0.038 133.473 32.565
1.6002500409999951 -1.119 0.142 -0.129 -2.634 113.901 28.557
1.61232970799999 -0.924 0.144 -0.173 -3.031 96.13 28.275
1.6194064159999897 -0.835 0.173 -0.056 -2.061 105.939 31.534
1.6311621249999888 -0.804 0.16 0.015 0.328 139.389 32.313
1.6382763749999896 -0.831 0.136 -0.003 5.679 176.817 24.916
1.6500611249999937 -0.976 0.113 -0.079 6.275 199.687 29.763
1.661613124999988 -1.182 0.126 -0.255 10.282 187.809 27.771
1.6686801660000017 -1.293 0.138 -0.333 18.076 150.092 28.008
1.6802364159999996 -1.325 0.189 -0.317 20.542 110.359 24.275
1.692035374999989 -1.226 0.206 -0.241 18.42 80.366 18.718
1.6991533749999943 -1.097 0.211 -0.186 13.924 70.763 13.305
1.7109327909999903 -0.9 0.204 -0.216 11.397 75.076 12.366
1.7180240409999925 -0.801 0.161 -0.222 13.71 94.542 16.359
1.729550790999994 -0.88 0.143 -0.194 19.893 117.42 21.237
1.7414168329999882 -1.006 0.144 -0.267 31.534 129.298 22.519
1.7482449159999902 -1.16 0.176 -0.378 44.214 121.366 18.13
1.7602816659999974 -1.221 0.198 -0.49 50.351 99.191 9.649
1.7721345409999998 -1.132 0.21 -0.549 53.603 69.702 0.29
1.7791563329999889 -0.962 0.213 -0.468 54.954 56.008 -2.13
1.7909622079999965 -0.853 0.167 -0.394 49.962 67.252 -5.031
1.796955582999999 -0.78 0.081 -0.364 53.359 90.779 -0.878
1.8096055409999965 -0.862 0.133 -0.449 59.511 104.511 4.183
1.8216327079999957 -0.977 0.191 -0.456 62.13 99.26 6.924
1.828691207999995 -0.979 0.253 -0.516 61.16 77.87 7.947
1.8404629159999928 -0.904 0.274 -0.476 53.26 61.374 9.038
1.8522764159999952 -0.86 0.197 -0.488 49.557 62.855 12.557
1.859406082999996 -0.805 0.155 -0.494 42.023 70.389 11.847
1.8712342500000003 -0.874 0.1 -0.503 40.198 85.87 12.198
1.8782794579999944 -0.998 0.124 -0.584 45.107 85.939 9.504
1.889998165999998 -1.094 0.16 -0.664 52.076 66.321 6.618
1.901971875000001 -0.99 0.181 -0.749 57.931 28.252 2.748
1.9089836249999903 -0.781 0.194 -0.542 61.221 14.038 4.977
1.9206807499999885 -0.818 0.17 -0.404 58.916 34.252 11.71
1.9324905829999892 -0.854 0.109 -0.475 56.115 47.893 11.611
1.939574832999995 -0.956 0.117 -0.515 55.855 44.924 16.084
1.9513782909999975 -1.08 0.183 -0.558 53.405 25.076 14.122
1.9581357080000004 -1.048 0.205 -0.522 47.679 2.649 10.397
1.970515290999998 -0.897 0.264 -0.466 37.061 -11.542 5.55
1.9824978329999965 -0.754 0.246 -0.371 22.153 -3.282 3.435
1.9895594999999984 -0.798 0.183 -0.319 7.939 19.092 5.786
2.001359665999999 -0.85 0.146 -0.512 3.214 25.366 11.145
2.008520915999995 -0.94 0.158 -0.58 7.191 10.481 14.969
2.020540582999999 -0.981 0.129 -0.582 14.29 -3.557 13.122
2.03230087499999 -0.983 0.109 -0.515 18.443 -10.725 10.954
2.0396829999999966 -1.023 0.146 -0.512 21.191 -10.733 7.42
2.0514266659999976 -0.967 0.14 -0.567 20.473 -20.702 2.786
2.058692957999994 -0.846 0.15 -0.492 19.206 -22.374 0.229
2.0704484580000013 -0.832 0.194 -0.375 15.733 -10.244 0.466
2.0765484579999907 -0.841 0.193 -0.385 8.214 -0.969 3.366
2.0901239999999888 -0.854 0.15 -0.539 3.244 -5.382 9.153
2.1018187909999995 -0.9 0.094 -0.548 0.84 -13.092 12.084
2.109294999999989 -0.929 0.058 -0.552 1.542 -13.977 14.45
2.12097520799999 -0.965 0.108 -0.56 4.969 -17.557 11.397
2.1282969999999892 -0.972 0.161 -0.531 7.603 -22.122 4.183
2.140264665999993 -0.894 0.211 -0.494 9.42 -23.031 -2.115
2.152031749999992 -0.883 0.173 -0.426 9.061 -14.611 -2.412
2.159367415999995 -0.836 0.096 -0.526 7.023 -10.481 -1.481
2.1714467079999906 -0.839 0.107 -0.554 7.023 -11.878 2.962
2.1784398329999988 -0.859 0.097 -0.566 5.985 -14.985 6.542
2.190456999999995 -0.89 0.038 -0.558 6.061 -17.229 8.145
2.2024679579999997 -0.908 0.104 -0.513 2.702 -18.924 5.435
2.209797832999996 -0.903 0.167 -0.435 -0.321 -13.626 0.557
2.221823125 -0.935 0.2 -0.417 0.229 -7.0 -3.656
2.229127707999993 -0.944 0.228 -0.418 0.84 -7.74 -5.878
2.241249874999994 -0.905 0.201 -0.495 0.519 -19.443 -5.634
2.2481295409999973 -0.823 0.155 -0.492 -2.992 -28.29 -2.053
2.26009037499999 -0.805 0.07 -0.501 -10.053 -23.718 3.511
2.2725805409999964 -0.826 -0.003 -0.58 -16.092 -18.763 4.771
2.2795968749999957 -0.825 0.04 -0.6 -14.031 -15.382 5.221
2.291685582999989 -0.862 0.116 -0.561 -5.412 -8.901 4.611
2.2991397910000018 -0.878 0.141 -0.559 7.267 -5.618 0.42
2.3112497500000018 -0.861 0.163 -0.506 14.817 -6.58 -3.328
2.318329915999996 -0.881 0.195 -0.479 17.153 -7.611 -4.802
2.330021500000001 -0.834 0.162 -0.463 11.641 -11.618 -2.313
2.342088624999988 -0.839 0.109 -0.456 2.305 -14.221 2.969
2.3494189999999975 -0.864 0.118 -0.442 -5.985 -15.328 6.725
2.3613945409999957 -0.881 0.15 -0.469 -11.832 -15.382 7.42
2.3687308330000008 -0.834 0.147 -0.528 -10.397 -14.748 7.26
2.380805707999997 -0.804 0.149 -0.49 -2.55 -9.084 7.756
2.387555290999998 -0.872 0.125 -0.461 4.237 2.794 6.145
2.400063582999991 -0.928 0.081 -0.532 10.351 2.656 4.115
2.412148957999989 -0.99 0.101 -0.565 12.931 -7.939 3.87
2.419251040999995 -0.986 0.104 -0.559 12.015 -25.519 4.855
2.431189707999991 -0.916 0.131 -0.487 7.901 -36.954 6.328
2.4384514999999993 -0.846 0.2 -0.389 -1.031 -35.618 5.206
2.4504949159999967 -0.786 0.238 -0.32 -11.374 -20.748 2.901
2.456586165999994 -0.782 0.189 -0.363 -17.29 -1.031 3.985
2.4698091659999903 -0.875 0.101 -0.401 -20.496 11.061 4.794
2.4818633329999926 -0.988 0.092 -0.515 -18.672 7.389 4.573
2.4891718749999967 -0.995 0.145 -0.587 -13.695 -12.137 2.603
2.501137665999991 -0.954 0.167 -0.536 -7.924 -28.771 1.634
