Time AX AY AZ GX GY GZ
0.0128279169999956 0.127 0.088 1.011 6.611 11.924 12.435
0.0246758749999997 0.102 0.072 1.003 2.863 11.275 9.198
0.0316155839999936 0.102 0.024 1.027 -0.977 13.412 7.427
0.0438501249999916 0.09 -0.026 1.008 -3.321 15.847 7.046
0.0509346249999964 0.042 -0.038 1.007 -4.183 15.466 5.725
0.0634818340000009 0.02 -0.029 0.962 -1.58 10.481 3.015
0.0705376669999964 0.027 -0.034 0.959 2.954 0.779 0.893
0.082952333999998 0.064 -0.049 0.949 9.771 -6.038 -1.275
0.0949090839999939 0.089 -0.046 0.968 15.489 -10.489 -1.947
0.1019666669999992 0.1 0.005 0.994 16.969 -14.71 -3.969
0.1137583750000033 0.105 0.06 1.026 15.183 -16.328 -6.885
0.1207864999999941 0.13 0.062 1.048 11.893 -14.061 -7.695
0.132814874999994 0.167 0.035 1.055 7.908 -11.168 -6.916
0.1449679999999915 0.185 0.035 1.044 4.542 -8.878 -4.725
0.1519047919999963 0.173 0.047 1.038 1.618 -6.244 -3.443
0.1639799169999918 0.188 0.048 1.004 0.748 -5.031 -2.443
0.1712596249999904 0.205 0.042 0.994 -0.214 -5.191 -1.824
0.1835181249999919 0.211 0.034 0.998 -0.153 -2.076 -1.328
0.190549500000003 0.207 0.023 0.994 -0.191 4.656 -0.557
0.2026109589999976 0.174 0.008 0.977 0.359 12.206 0.435
0.2146434169999906 0.142 0.008 0.949 1.687 13.977 0.786
0.221693708999993 0.112 0.022 0.962 3.359 11.702 0.374
0.233729334000003 0.118 0.023 0.966 5.931 7.405 -0.298
0.2407847919999994 0.13 0.027 0.988 8.008 3.359 -0.573
0.252832749999996 0.141 0.04 1.019 6.733 0.305 -0.069
0.2649085839999969 0.133 0.059 1.037 3.298 -1.527 -0.282
0.2721199169999977 0.11 0.065 1.031 -1.282 -2.397 -1.985
0.2841956249999953 0.128 0.061 1.004 -3.137 -4.718 -3.664
0.2915370420000016 0.138 0.036 1.012 -3.74 -5.107 -3.931
0.3034810420000013 0.135 0.017 1.006 -3.626 -2.565 -3.611
0.310893374999992 0.118 0.001 0.947 -1.534 -2.198 -3.756
0.3228317920000023 0.122 0.007 0.898 3.099 -9.244 -4.092
0.3348943749999904 0.145 0.015 0.916 7.527 -18.244 -4.756
0.3419450840000024 0.172 0.04 0.959 10.267 -20.137 -5.702
0.3537324170000033 0.187 0.057 0.989 10.168 -16.908 -6.168
0.361034042 0.208 0.052 1.0 7.542 -12.542 -4.763
0.373068583999995 0.219 0.065 1.012 3.031 -7.534 -2.397
0.380354459000003 0.226 0.067 1.012 -0.267 -0.145 -1.191
0.3923680420000011 0.231 0.064 1.01 -1.557 8.733 0.282
0.404468499999993 0.205 0.034 0.98 -0.29 16.687 1.618
0.4117670839999903 0.185 -0.0 0.963 1.855 19.336 2.794
0.4235986669999931 0.131 0.001 0.953 2.771 16.656 3.214
0.4308232919999994 0.106 0.052 0.935 4.252 8.397 1.084
0.4428433749999954 0.123 0.072 0.955 5.427 -0.718 -0.573
0.4549599589999928 0.136 0.056 1.003 4.664 -2.427 -0.939
0.4617920839999954 0.144 0.034 1.034 2.992 0.55 -1.168
0.4738787499999972 0.159 0.015 1.012 1.618 2.412 -0.84
0.4807133340000007 0.171 0.024 1.006 1.145 4.008 -1.603
0.4931088339999974 0.165 0.028 1.022 1.26 8.13 -2.023
0.5049048340000013 0.16 0.042 1.007 1.183 11.145 -1.458
0.5121676669999999 0.191 0.045 0.982 1.695 8.878 -0.214
0.5242030839999927 0.194 0.046 1.002 1.702 7.344 0.473
0.5313155420000015 0.167 0.046 1.021 1.191 11.466 0.954
0.5433217920000004 0.166 0.038 1.003 0.87 12.061 0.931
0.5504322500000001 0.141 0.034 0.988 1.863 10.221 0.626
0.562433624999997 0.13 0.031 1.006 1.695 8.802 -0.153
0.5744808749999919 0.19 0.05 0.982 2.298 6.397 1.71
0.5814408749999984 0.269 0.094 1.029 0.901 9.252 4.168
0.5935170839999984 0.344 0.106 1.111 -4.527 25.099 8.427
0.6005956669999932 0.363 0.096 1.147 -11.618 54.611 13.855
0.6126905419999957 0.272 0.078 1.11 -16.954 83.176 16.687
0.6244908339999995 0.116 0.042 1.034 -19.947 99.893 14.412
0.6315131669999943 -0.034 -0.006 0.928 -18.595 99.809 11.252
0.643616209000001 -0.13 -0.021 0.819 -12.107 78.893 6.901
0.6509919589999953 -0.13 -0.04 0.815 -2.863 44.221 3.061
0.6630312919999994 0.006 -0.025 0.854 6.969 15.733 2.992
0.6692560420000007 0.093 0.02 1.026 11.702 10.214 3.427
0.6821630000000027 0.159 0.073 1.131 9.176 29.168 3.397
0.6942565840000015 0.123 0.089 1.149 2.298 57.573 1.214
0.7014147089999909 0.033 0.065 1.084 -4.794 77.244 0.969
0.7136002919999953 -0.056 0.023 0.974 -8.015 75.023 0.397
0.7205880420000028 0.0 0.004 0.896 -6.718 52.992 4.389
0.7325862499999971 0.017 0.025 0.979 -5.924 42.809 6.374
0.7445985419999914 0.09 0.043 1.033 -6.863 52.412 8.214
0.7517518339999896 0.116 0.066 1.04 -9.107 72.191 10.122
0.7637687919999934 0.103 0.061 1.024 -10.26 94.298 3.702
0.7710274589999955 0.025 -0.004 0.991 -7.725 117.496 4.084
0.7830525839999893 -0.088 -0.027 0.894 -0.893 124.015 2.817
0.7903669589999964 -0.102 -0.03 0.812 8.038 110.504 0.74
0.8021422089999959 -0.058 0.0 0.875 16.053 99.168 -0.573
0.8141748339999992 -0.004 0.036 0.951 20.855 104.771 0.763
0.8210727089999921 0.029 0.068 1.012 21.985 120.626 2.916
0.8331399169999969 -0.035 0.086 1.066 19.374 145.344 2.603
0.8449303339999972 -0.169 0.094 1.031 14.901 165.87 -0.878
0.8516622499999897 -0.2 0.078 0.939 12.969 164.481 -2.656
0.8634976249999937 -0.208 0.064 0.927 11.763 151.855 -1.763
0.8707699590000004 -0.174 0.082 0.944 8.42 142.756 2.405
0.882645999999994 -0.101 0.12 0.989 0.969 146.168 7.344
0.8946219169999949 -0.067 0.136 1.018 -8.328 165.794 10.733
0.9017813339999918 -0.118 0.091 1.032 -17.901 197.618 15.275
0.9135617089999926 -0.289 0.066 0.947 -26.069 223.046 18.122
0.9205895839999982 -0.444 0.046 0.778 -24.977 222.603 18.832
0.9326140419999972 -0.554 0.009 0.671 -15.58 201.275 18.473
0.9444456669999964 -0.545 -0.027 0.605 0.718 169.771 19.924
0.951480791999998 -0.542 0.017 0.674 16.71 146.687 16.863
0.9633055839999968 -0.524 0.067 0.821 20.137 148.214 10.84
0.9703405420000024 -0.501 0.103 0.885 13.557 165.779 8.26
0.982412791999991 -0.577 0.106 0.86 2.802 185.832 5.687
0.9944242499999943 -0.625 0.063 0.732 -5.115 191.16 6.649
1.001197708999996 -0.668 0.022 0.617 -5.87 178.603 9.557
1.0134269169999897 -0.66 0.012 0.585 -1.763 159.084 13.45
1.0202314590000017 -0.664 0.046 0.627 5.244 147.725 13.435
1.0320888749999997 -0.629 0.055 0.661 7.901 149.511 12.099
1.0442870419999934 -0.599 0.066 0.687 5.427 156.55 13.328
1.050993792 -0.692 0.077 0.695 -3.695 172.962 12.252
1.063477542000001 -0.726 0.048 0.602 -8.985 182.107 13.328
1.0700812500000012 -0.795 -0.0 0.522 -5.771 183.214 14.496
1.08231383399999 -0.873 -0.006 0.482 0.977 177.282 9.954
1.0946027499999929 -0.898 0.033 0.477 8.954 167.817 5.427
1.101346042000003 -0.89 0.051 0.468 16.229 158.885 5.336
1.113335124999992 -0.874 0.043 0.481 18.824 149.534 7.198
1.1201150419999948 -0.916 0.032 0.514 15.16 148.45 7.87
1.132352291999993 -0.914 0.036 0.486 10.763 149.71 8.557
1.1443382089999972 -0.906 0.086 0.463 9.29 145.901 7.26
1.1515219169999966 -0.873 0.127 0.457 7.794 150.061 1.557
1.1635619169999956 -0.814 0.107 0.454 7.969 163.107 -0.756
1.1703412499999928 -0.83 0.052 0.429 8.26 178.802 1.321
1.1825455419999995 -0.934 0.042 0.346 6.519 184.908 3.794
1.194620999999998 -0.977 0.035 0.207 4.664 170.748 6.809
1.201725291999992 -0.973 0.022 0.167 7.473 153.489 11.542
1.2135000419999926 -1.034 0.077 0.195 13.718 147.458 9.527
1.2206041669999903 -1.01 0.13 0.224 16.527 148.298 0.221
1.2324308339999988 -0.875 0.152 0.191 18.885 153.092 -3.092
1.2442527089999942 -0.886 0.093 0.171 17.282 169.626 -2.176
1.2512542500000023 -0.896 0.001 0.101 14.496 181.359 0.321
1.2630710419999929 -0.97 0.002 0.019 17.435 180.588 5.046
1.274902249999997 -1.07 0.101 -0.021 20.122 163.649 7.221
1.281969625000002 -1.073 0.186 -0.003 18.29 141.489 6.237
1.293723 -1.001 0.122 0.007 12.076 129.031 8.473
1.300831458999994 -0.961 0.057 0.021 9.664 129.008 11.84
1.3127555840000014 -1.018 0.011 -0.058 12.939 146.16 12.687
1.324460000000002 -1.008 -0.025 -0.262 27.779 149.626 10.275
1.3315076250000004 -1.022 0.075 -0.264 45.092 142.168 1.427
1.3430578339999926 -1.034 0.14 -0.174 55.336 144.702 -8.863
1.3549061669999958 -1.006 0.125 -0.153 60.786 145.191 -9.634
1.361716833999992 -1.01 0.13 -0.152 63.802 137.573 -6.183
1.3735452089999995 -1.019 0.134 -0.156 63.435 130.954 -3.344
1.3805838749999992 -1.024 0.097 -0.19 64.924 128.466 0.092
1.3921001669999953 -1.06 0.076 -0.244 64.351 124.809 -0.832
1.4040627499999945 -1.051 0.064 -0.246 63.42 113.534 -1.794
1.4108409170000016 -1.13 0.054 -0.218 59.847 108.641 -4.305
1.422626249999993 -1.083 0.056 -0.301 59.206 96.824 -5.779
1.434430167000002 -1.091 0.111 -0.255 57.313 84.397 -5.931
1.441493459 -0.868 0.137 -0.369 60.664 74.809 -7.656
1.4532734590000018 -0.83 0.076 -0.246 66.817 93.244 -7.092
1.4592482500000017 -0.824 0.028 -0.415 80.183 116.641 -5.008
1.4719540839999894 -0.941 0.102 -0.411 90.023 119.221 -4.733
1.483814874999993 -1.058 0.102 -0.392 85.405 104.901 -6.069
1.4908951669999908 -1.035 0.036 -0.374 73.565 82.267 0.702
1.5026111250000014 -1.029 0.006 -0.394 60.305 64.42 3.626
1.5144827919999957 -0.947 0.011 -0.38 54.908 57.87 6.527
1.5214964999999978 -0.998 0.091 -0.356 51.962 69.252 3.092
1.533279958999998 -1.048 0.116 -0.418 50.221 74.122 -5.221
1.5403443749999894 -0.958 0.079 -0.493 51.191 69.275 -10.229
1.5521277499999968 -0.98 -0.058 -0.488 51.641 71.183 -9.13
1.5639607089999998 -0.917 -0.077 -0.55 50.29 60.183 -6.985
1.571095249999999 -0.877 0.067 -0.468 43.252 55.168 -6.046
1.5828352500000022 -0.801 0.097 -0.443 32.962 59.298 -8.046
1.5945980839999976 -0.846 -0.024 -0.478 29.145 74.763 -5.221
1.6019354589999892 -0.957 -0.089 -0.591 29.359 69.756 0.763
1.613834666999992 -1.143 -0.116 -0.529 25.649 51.153 7.031
1.6205605419999929 -1.095 -0.119 -0.612 18.71 20.756 10.641
1.632620708999994 -1.026 0.008 -0.447 15.42 6.55 9.847
1.6446122919999908 -0.984 0.15 -0.417 11.137 12.252 3.489
1.651669291999994 -0.821 0.186 -0.433 7.229 21.198 -5.511
1.663474917000002 -0.819 0.067 -0.476 2.504 38.611 -12.023
1.6707794169999914 -0.789 -0.054 -0.562 0.84 43.183 -6.183
1.6830173339999988 -0.894 -0.11 -0.654 1.206 33.901 4.84
1.6949373340000022 -0.961 -0.062 -0.638 -0.863 12.321 11.336
1.7018975419999975 -1.012 0.012 -0.493 -4.298 4.145 12.786
1.7140771250000029 -1.031 0.042 -0.478 -7.496 4.206 13.962
1.7212392499999964 -1.074 0.056 -0.484 -8.275 0.992 12.313
1.7334947089999986 -1.023 0.042 -0.543 -9.015 -6.74 8.985
1.7408437919999926 -0.933 0.005 -0.526 -6.397 -7.42 5.221
1.7531144590000023 -0.903 -0.077 -0.509 -4.466 2.366 0.679
1.75899287499999 -0.86 0.04 -0.518 -4.74 6.878 -1.237
1.7722254999999905 -0.921 0.111 -0.484 -6.687 13.947 -5.58
1.7841715419999955 -0.948 0.059 -0.54 -5.611 13.008 -2.84
1.7915514169999938 -0.999 0.026 -0.562 -3.595 0.351 4.847
1.803529999999995 -1.032 0.025 -0.546 -5.733 -19.397 12.397
1.8108418340000016 -0.917 -0.009 -0.567 -9.679 -33.229 12.115
1.8228364590000012 -0.842 -0.032 -0.467 -10.344 -21.916 7.244
1.8286867500000028 -0.886 0.021 -0.439 -7.374 -1.115 3.359
1.8421800419999952 -0.925 0.101 -0.506 -8.893 4.099 -3.626
1.8543798339999995 -0.897 0.1 -0.531 -9.901 -3.649 -6.252
1.8614841249999896 -0.888 0.01 -0.495 -11.405 -6.519 -2.588
1.8736968340000004 -0.87 -0.03 -0.565 -9.924 -9.382 4.611
1.8812169589999996 -0.897 -0.007 -0.605 -7.092 -16.511 7.427
1.8932336249999937 -0.85 -0.028 -0.605 -2.916 -20.267 5.863
1.900784958999992 -0.841 -0.027 -0.522 -0.427 -14.824 3.962
1.9128650839999892 -0.85 0.053 -0.488 -0.183 -7.679 4.511
1.9204202089999995 -0.905 0.104 -0.462 -4.595 -8.901 5.939
1.9324241669999935 -0.932 0.095 -0.46 -13.878 -19.015 7.221
1.9444104170000005 -0.868 0.047 -0.466 -21.702 -26.237 7.779
1.9514410839999952 -0.813 0.005 -0.503 -23.389 -20.137 8.527
1.9638251249999996 -0.781 0.015 -0.549 -15.885 -9.176 7.061
1.9711018339999953 -0.883 0.046 -0.581 -5.366 1.229 3.679
1.9830535419999933 -0.902 0.062 -0.606 2.847 -4.977 4.542
1.990373792 -0.953 -0.035 -0.572 5.519 -17.802 8.16
2.0023827919999917 -0.882 -0.067 -0.531 4.282 -33.076 15.137
2.014409208999993 -0.87 0.067 -0.406 -4.321 -35.901 14.771
2.02166849999999 -0.875 0.105 -0.353 -15.481 -18.626 5.031
2.033567624999989 -0.841 0.057 -0.41 -22.573 0.901 -1.382
2.0407930840000006 -0.878 0.058 -0.511 -19.58 9.672 0.344
2.0527778749999896 -0.942 0.045 -0.598 -12.221 0.779 3.71
2.064900666999989 -0.943 0.019 -0.613 -5.702 -17.389 9.481
2.072142124999999 -0.915 -0.03 -0.595 -0.267 -30.878 15.74
2.0841509170000023 -0.858 -0.034 -0.535 3.931 -35.809 18.298
2.0914757500000007 -0.897 0.046 -0.429 2.519 -24.924 13.511
2.1034889589999892 -0.912 0.105 -0.412 -2.832 -13.863 7.366
2.110777166999995 -0.928 0.13 -0.403 -9.863 -7.313 1.649
2.123154999999997 -0.927 0.119 -0.422 -17.603 -7.534 0.542
2.128980249999998 -0.843 0.093 -0.49 -21.038 -11.603 2.641
2.142451084000001 -0.853 0.014 -0.5 -17.71 -5.046 3.244
2.1543848339999982 -0.906 -0.032 -0.545 -9.282 0.351 6.153
2.1619536669999917 -0.975 0.004 -0.586 -0.84 -7.382 9.58
2.1739830420000033 -0.985 0.033 -0.576 3.168 -24.069 9.588
2.1810513749999956 -0.914 0.06 -0.477 1.557 -31.794 9.656
2.193337708999991 -0.844 0.109 -0.387 -3.817 -24.29 8.824
2.20054537499999 -0.842 0.155 -0.368 -9.153 -9.107 5.458
2.2125591249999985 -0.876 0.13 -0.41 -12.649 4.115 1.046
2.22461045899999 -0.906 0.057 -0.5 -10.26 6.26 1.252
2.2318791670000024 -0.952 0.023 -0.567 -3.313 -3.443 5.916
2.2439742499999937 -0.947 0.041 -0.567 1.664 -19.191 10.397
2.250968125 -0.906 0.067 -0.494 2.137 -27.893 11.702
2.263290374999997 -0.856 0.101 -0.404 -0.87 -24.214 9.87
2.2705373749999893 -0.848 0.134 -0.345 -5.969 -8.733 6.046
2.2826241669999945 -0.895 0.111 -0.385 -10.076 5.458 3.832
2.2945852499999972 -0.919 0.061 -0.5 -9.015 6.496 4.573
2.302170208999996 -0.939 0.051 -0.542 -3.282 -4.107 6.878
2.3141610839999913 -0.927 0.074 -0.521 1.382 -13.962 8.374
2.3212362919999947 -0.91 0.101 -0.429 2.389 -16.198 8.702
2.3332463339999947 -0.911 0.111 -0.406 0.008 -12.977 7.763
2.340772291999997 -0.931 0.077 -0.407 -2.58 -8.779 7.832
2.352792917000002 -0.906 0.044 -0.472 -3.145 -9.237 7.687
2.358886291999994 -0.904 0.075 -0.452 -1.817 -10.885 7.672
2.3723563340000027 -0.907 0.135 -0.413 -2.252 -8.267 6.191
2.3846221670000034 -0.907 0.155 -0.395 -4.053 -4.511 4.763
2.3919375419999938 -0.913 0.125 -0.397 -6.168 -2.008 4.817
2.404178791999996 -0.926 0.083 -0.437 -4.702 -2.672 7.198
2.4115516669999977 -0.977 0.068 -0.466 -2.588 -6.901 8.099
2.423522792 -0.988 0.053 -0.475 -1.053 -13.511 8.443
2.4307805419999937 -0.948 0.034 -0.472 0.718 -19.405 9.931
2.4428685839999957 -0.919 0.095 -0.418 0.74 -21.305 10.794
2.454829416999999 -0.896 0.185 -0.368 -2.672 -17.939 7.802
2.462121124999996 -0.875 0.208 -0.347 -6.29 -8.328 5.031
2.474393833999997 -0.912 0.172 -0.372 -8.038 1.527 4.687
2.4817386249999913 -0.973 0.123 -0.399 -8.099 3.893 3.679
2.4937242499999996 -0.994 0.068 -0.462 -6.74 -3.198 4.931
2.5009902919999973 -0.982 0.053 -0.464 -4.924 -13.756 7.611
