Time AX AY AZ GX GY GZ
0.019998708000002807 -0.719 0.003 0.781 28.809 8.954 -6.71
0.0321985000000069 -0.724 0.009 0.792 33.473 5.824 -7.069
0.03955841700000917 -0.729 0.03 0.788 36.595 3.015 -6.16
0.05166654200000664 -0.732 0.04 0.789 37.756 -0.183 -4.527
0.05873162500000717 -0.724 0.052 0.771 36.779 -0.573 -2.916
0.07136125000000959 -0.707 0.065 0.802 35.519 1.809 -2.84
0.07872162500000002 -0.718 0.051 0.832 36.046 6.718 -4.137
0.0908117500000003 -0.736 0.034 0.859 39.0 9.282 -6.87
0.09824208300000237 -0.75 0.027 0.846 43.351 8.695 -10.374
0.11024600000000362 -0.785 0.024 0.865 48.489 6.16 -10.664
0.12249941700000022 -0.807 0.034 0.859 56.481 3.779 -7.55
0.12982208300000764 -0.821 0.026 0.847 67.008 6.977 -1.618
0.14207091699999808 -0.829 0.029 0.865 77.321 6.519 4.496
0.14934170800000857 -0.856 0.048 0.845 84.786 3.824 10.901
0.16164641700000004 -0.859 0.097 0.827 89.756 -0.771 16.328
0.1688890830000105 -0.841 0.145 0.786 92.145 -6.832 20.42
0.1809683330000098 -0.794 0.173 0.745 94.832 -4.42 23.198
0.1882235420000029 -0.726 0.161 0.699 100.489 8.366 24.969
0.20031724999999767 -0.691 0.132 0.613 109.26 27.344 27.145
0.21231850000000918 -0.751 0.107 0.653 123.359 43.649 36.198
0.21962129199999936 -0.786 0.078 0.661 141.229 54.618 46.198
0.23167404200000874 -0.777 0.062 0.613 159.237 62.542 51.412
0.2386833750000079 -0.804 0.108 0.62 171.29 56.458 53.29
0.25072466700000007 -0.828 0.183 0.581 179.206 48.672 54.473
0.2627064580000109 -0.774 0.243 0.474 178.947 39.855 52.153
0.27013575000000856 -0.683 0.323 0.305 169.16 37.901 48.198
0.2820329170000093 -0.559 0.376 0.161 153.977 43.702 41.832
0.2893553749999995 -0.467 0.39 0.039 137.687 57.733 30.55
0.3014172080000037 -0.456 0.383 0.002 123.076 79.656 26.26
0.308502500000003 -0.481 0.305 0.056 115.779 99.687 23.13
0.3205756250000036 -0.563 0.245 0.185 116.122 106.573 17.214
0.3325149580000044 -0.643 0.228 0.302 118.198 76.405 11.176
0.339825083000008 -0.618 0.272 0.15 110.992 42.626 2.695
0.3518747920000038 -0.504 0.358 -0.098 87.397 38.183 -7.45
0.35893758299999945 -0.427 0.413 -0.23 56.198 48.687 -16.672
0.37103812499999833 -0.431 0.41 -0.241 26.252 60.084 -23.565
0.37827454199999977 -0.529 0.35 -0.219 4.527 67.855 -26.435
0.3901087920000066 -0.591 0.255 -0.243 -12.718 66.45 -29.473
0.401752958000003 -0.577 0.185 -0.282 -33.573 32.412 -34.885
0.4089602500000069 -0.49 0.229 -0.339 -62.771 -14.687 -42.374
0.42079437499999983 -0.326 0.303 -0.496 -104.794 -56.16 -52.237
0.43230962500000203 -0.149 0.344 -0.586 -156.649 -76.145 -64.863
0.4393888750000059 -0.062 0.29 -0.507 -212.809 -82.405 -84.221
0.45099495800000966 -0.074 0.198 -0.344 -250.137 -81.427 -112.908
0.4627412080000113 -2.0 -0.94 2.0 250.13 -250.137 39.466
0.4695489580000043 -0.722 -0.495 -0.141 233.099 232.45 108.328
0.481581417000001 0.281 -0.012 -0.119 -54.237 117.443 -1.183
0.4884922500000073 -0.208 1.634 1.475 -143.794 -162.076 -48.969
0.5002785000000074 -0.915 2.0 0.342 -179.321 -67.237 -13.359
0.5124455830000016 -0.498 1.179 0.188 -192.069 56.351 11.496
0.5194076249999995 0.546 0.106 0.494 -182.229 117.0 -43.565
0.5309232919999971 0.541 -0.301 0.957 -153.977 114.176 -118.924
0.5427802920000033 -0.334 -0.203 0.692 -105.603 158.344 -123.153
0.5496018330000112 -1.0 -0.262 0.586 -64.931 250.13 -107.313
0.5613962919999977 -1.77 -0.224 1.454 -15.603 250.13 -90.664
0.5687578330000065 -2.0 0.029 1.745 49.489 89.695 -33.687
0.5807279579999971 -2.0 0.21 1.252 85.229 -14.359 43.595
0.5928033750000026 -1.78 0.23 0.996 98.29 -51.405 93.313
0.599901917000011 -1.328 0.281 0.776 104.405 -58.008 107.031
0.6115172500000057 -1.064 0.331 0.663 108.748 -43.229 111.435
0.618311458000008 -0.791 0.271 0.526 114.42 -19.664 107.71
0.6306220830000058 -0.612 0.27 0.386 118.046 16.672 91.42
0.6426538750000077 -0.598 0.317 0.332 119.901 42.802 77.176
0.6500451670000018 -0.586 0.305 0.326 124.244 48.16 66.458
0.6619697499999972 -0.545 0.292 0.216 125.939 39.618 54.901
0.6690497080000029 -0.468 0.295 -0.045 121.595 40.847 45.305
0.681054875000001 -0.401 0.324 -0.168 108.107 46.42 32.397
0.6881277080000103 -0.363 0.332 -0.266 93.214 49.427 20.565
0.700159792000008 -0.368 0.297 -0.349 77.779 41.969 13.786
0.7123705000000058 -0.314 0.264 -0.461 58.969 32.87 9.885
0.7197019580000017 -0.224 0.243 -0.6 34.924 20.832 4.084
0.7317135830000012 -0.143 0.249 -0.637 8.282 5.443 -3.885
0.7387631670000019 -0.077 0.248 -0.698 -18.473 -12.962 -13.031
0.7505861249999981 -0.034 0.242 -0.763 -47.565 -30.534 -24.038
0.7623539580000056 0.021 0.233 -0.808 -83.023 -45.603 -36.87
0.769465000000011 0.068 0.233 -0.876 -128.214 -58.198 -53.847
0.7813267500000052 0.04 0.216 -0.888 -184.405 -69.489 -73.435
0.7881344999999982 -0.066 0.187 -0.752 -245.076 -80.885 -91.305
0.7996532080000094 -0.259 0.16 -0.529 -250.137 -102.443 -114.29
0.811284624999999 -0.551 0.119 -0.036 -250.137 -130.74 -143.046
0.8183787920000043 -2.0 -1.683 2.0 250.13 56.664 -25.221
0.8307033330000024 -2.0 0.014 -0.202 51.893 250.13 -23.221
0.8422801669999984 -1.918 1.366 2.0 -124.878 -54.405 8.275
0.8490247920000087 -1.478 1.949 1.49 -121.733 -250.137 5.221
0.8611082919999973 -1.189 1.601 -0.941 -147.901 -147.275 36.641
0.8681272920000112 -0.383 0.531 -0.239 -178.618 31.985 26.092
0.879955042000006 0.408 -0.098 0.529 -160.527 126.382 -50.237
0.8919157079999991 -0.05 -0.267 0.906 -100.992 143.718 -88.458
0.8984417919999999 -0.789 -0.393 0.734 -31.863 184.229 -69.817
0.9104144580000053 -1.459 -0.517 1.078 29.084 225.786 -35.305
0.9224797500000079 -2.0 -0.305 1.78 98.55 131.023 28.466
0.92988758300001 -2.0 0.127 1.323 146.863 -18.985 114.687
0.9418151670000015 -1.722 0.367 0.799 154.244 -98.863 156.038
0.9487715000000065 -0.79 0.42 0.182 134.305 -94.26 125.489
0.9604532080000041 -0.362 0.48 0.051 108.221 -21.809 86.397
0.9726361670000045 -0.281 0.38 0.2 99.076 23.496 64.206
0.9796390830000092 -0.406 0.297 0.232 103.153 51.443 50.092
0.9917300420000004 -0.568 0.269 0.17 104.053 73.397 41.824
0.9990395829999983 -0.599 0.229 0.134 104.023 72.511 36.389
1.0109251670000106 -0.558 0.235 0.072 103.542 50.214 31.58
1.0181598329999986 -0.511 0.269 -0.093 95.634 33.305 25.405
1.0301845420000006 -0.458 0.291 -0.252 83.481 32.466 18.26
1.042388458000005 -0.415 0.288 -0.323 70.908 30.099 14.664
1.0490395420000027 -0.366 0.294 -0.348 58.214 18.855 11.053
1.061525875000001 -0.305 0.272 -0.476 44.84 14.87 5.237
1.0684975830000099 -0.277 0.239 -0.518 26.924 6.191 -1.603
1.0808609170000096 -0.219 0.238 -0.618 3.45 -12.84 -7.137
1.0864765000000034 -0.131 0.237 -0.688 -24.916 -23.176 -15.519
1.0993067500000109 -0.047 0.253 -0.738 -57.885 -37.42 -23.855
1.1114380000000068 0.026 0.242 -0.809 -100.328 -54.74 -40.137
1.118228166999998 0.033 0.246 -0.87 -153.573 -73.718 -60.779
1.1301462079999993 -0.002 0.25 -0.83 -215.87 -93.641 -80.588
1.1418764579999987 -0.107 0.238 -0.642 -250.137 -114.412 -101.344
1.1481040000000036 -0.321 0.227 -0.369 -250.137 -131.298 -124.74
1.1601070829999998 -2.0 -1.577 2.0 250.13 -250.137 -60.008
1.172097167000004 -2.0 -0.702 0.499 223.305 250.13 -45.534
1.1788884999999993 -2.0 -0.107 -0.371 6.183 135.832 15.756
1.190960000000004 -2.0 1.923 2.0 -62.748 -250.137 -15.214
1.197726958000004 -1.437 2.0 -0.371 -126.855 -250.137 14.893
1.2097395420000083 -0.899 1.16 -0.261 -176.42 -98.969 41.282
1.2216237080000099 -0.122 0.358 0.219 -194.878 12.802 14.779
1.2284976250000028 -0.021 0.049 0.775 -182.221 37.092 -40.969
1.2408248750000013 -0.425 0.203 0.736 -140.794 55.069 -69.229
1.2527213750000072 -0.729 0.143 0.536 -92.534 137.298 -54.473
1.2597366669999985 -1.014 -0.255 0.924 -25.519 206.916 -34.779
1.2715050000000048 -1.501 -0.462 1.133 34.489 169.901 -8.802
1.2787516249999982 -2.0 -0.328 1.316 87.145 62.008 44.092
1.2905505829999981 -2.0 0.043 1.078 120.588 -43.504 106.55
1.3026190420000034 -1.486 0.315 0.637 126.718 -98.168 126.611
1.3096613330000082 -0.716 0.414 0.158 111.885 -72.252 83.947
1.3216745830000036 -0.419 0.486 0.048 94.214 -7.695 53.939
1.3290157500000106 -0.347 0.405 0.217 91.206 35.947 40.954
1.3412459999999982 -0.445 0.26 0.17 98.023 72.916 31.664
1.3483221670000063 -0.612 0.164 0.111 104.832 100.969 22.87
1.3603277500000104 -0.755 0.168 0.171 114.153 87.466 20.756
1.3723659170000104 -0.733 0.228 0.021 113.71 57.824 22.84
1.3793886670000006 -0.593 0.284 -0.19 105.527 45.458 19.328
1.3914386670000027 -0.442 0.321 -0.354 91.939 50.26 14.916
1.398881000000003 -0.349 0.344 -0.46 75.672 55.214 11.969
1.4107889579999977 -0.314 0.316 -0.562 57.252 53.206 6.756
1.4180571670000006 -0.337 0.271 -0.614 34.847 39.55 1.802
1.4303367079999987 -0.307 0.253 -0.7 3.679 10.687 -4.183
1.4421304170000013 -0.216 0.272 -0.817 -40.992 -30.916 -14.137
1.448940792000002 -0.103 0.35 -0.791 -94.382 -75.45 -28.389
1.4608202499999976 0.028 0.383 -0.806 -152.168 -103.55 -47.573
1.4726020420000054 0.058 0.309 -0.734 -212.282 -110.527 -76.908
1.4791988750000087 -0.088 0.248 -0.483 -250.137 -117.099 -109.305
1.4907944580000105 -1.363 -0.525 2.0 -121.481 -220.977 -121.863
1.5025712080000062 -2.0 -0.678 1.818 250.13 250.13 -26.0
1.509943917000001 -2.0 -0.76 -1.136 70.878 250.13 2.137
1.5216754580000043 -2.0 1.35 2.0 -22.511 -187.168 12.275
1.528819249999998 -1.052 1.945 0.293 -120.855 -250.137 26.046
1.540400500000004 -0.652 1.304 -0.413 -162.145 -187.435 59.977
1.5523759170000062 0.044 0.446 0.062 -192.71 -25.435 42.405
1.559423332999998 0.192 0.219 0.845 -196.824 45.618 -14.847
1.5714987080000071 -0.214 0.045 0.959 -159.153 44.099 -66.29
1.5785424999999975 -0.638 0.141 0.723 -90.13 107.603 -64.962
1.5903432080000073 -0.919 -0.177 0.808 -15.939 196.374 -36.58
1.6022058329999993 -1.378 -0.433 1.135 53.336 181.061 -15.779
1.60923425 -1.952 -0.317 1.301 115.183 81.298 25.061
1.6212479170000051 -2.0 0.086 1.009 152.29 -23.588 86.527
1.6283641250000045 -1.344 0.406 0.399 149.786 -79.695 103.71
1.6402033330000023 -0.677 0.589 -0.069 123.267 -41.824 63.008
1.6521769170000056 -0.514 0.593 0.042 102.275 10.427 39.076
1.6595462920000017 -0.56 0.471 0.087 94.672 24.641 35.802
1.671431042000009 -0.611 0.267 -0.018 93.076 48.756 34.656
1.6784672920000077 -0.669 0.169 -0.072 93.473 65.443 27.756
1.6906893750000052 -0.683 0.21 -0.134 92.611 58.84 23.641
1.6975490420000057 -0.61 0.23 -0.226 88.534 38.137 21.282
1.7098680000000002 -0.502 0.26 -0.389 78.786 29.573 17.366
1.722181875000004 -0.392 0.285 -0.511 63.656 34.153 12.458
1.7290793330000014 -0.338 0.291 -0.575 44.45 29.893 8.42
1.7413286670000048 -0.313 0.306 -0.669 19.901 20.435 3.099
1.7483237499999973 -0.305 0.293 -0.708 -9.565 8.412 -4.527
1.7603743330000015 -0.275 0.281 -0.731 -44.366 -10.038 -11.511
1.7723777080000076 -0.239 0.278 -0.688 -86.137 -38.206 -21.718
1.7788601250000085 -0.174 0.277 -0.751 -134.313 -65.634 -40.237
1.7908733330000075 -0.153 0.268 -0.678 -187.137 -85.344 -65.534
1.8026869170000026 -0.213 0.23 -0.474 -240.344 -106.389 -94.374
1.8091204580000095 -0.404 0.199 -0.222 -250.137 -132.214 -126.931
1.8210565830000007 -2.0 -2.0 2.0 250.13 -249.382 -92.763
1.8275430000000057 -2.0 -0.828 -0.327 205.924 250.13 -18.183
1.839757917 -2.0 0.46 -0.012 10.641 88.863 12.74
1.8518325000000004 -0.927 2.0 -0.017 -132.382 -250.137 12.221
1.8583416250000084 -0.568 1.96 0.223 -158.313 -212.771 50.458
1.8706209999999999 -0.045 0.546 0.172 -189.038 -64.053 18.183
1.8825422500000002 0.158 0.143 0.375 -199.489 48.099 -24.748
1.889454999999998 -0.034 0.013 0.898 -187.542 67.382 -80.771
1.9013587920000106 -0.398 -0.04 0.741 -122.511 109.076 -97.206
1.9081467080000039 -0.778 -0.332 0.691 -43.733 194.893 -91.611
1.9214662920000052 -1.275 -0.59 0.996 42.71 198.328 -75.466
1.9366021670000038 -1.766 -0.457 1.177 118.389 105.824 -23.443
1.93991491700001 -1.909 0.014 0.865 152.229 44.901 50.466
1.9515655419999973 -1.659 0.399 0.566 155.206 1.878 96.115
1.9583452920000042 -1.166 0.552 0.203 138.695 -20.847 85.565
1.9705434170000018 -0.85 0.59 -0.016 110.733 3.718 56.473
1.976628292000001 -0.751 0.402 0.08 90.374 19.511 47.458
1.9899358750000005 -0.757 0.236 0.092 87.786 24.061 48.0
2.0021302500000075 -0.724 0.159 0.013 91.45 28.954 47.756
2.009351125000009 -0.633 0.166 -0.128 94.397 40.84 40.321
2.0214747079999995 -0.568 0.206 -0.179 94.29 47.427 31.137
2.0287777500000033 -0.51 0.227 -0.277 91.908 46.687 22.924
2.0404741669999993 -0.477 0.239 -0.432 84.176 49.527 16.458
2.0535268330000065 -0.442 0.259 -0.505 69.344 45.244 12.305
2.059864833000006 -0.404 0.289 -0.609 46.481 32.885 10.519
2.0720630830000033 -0.354 0.328 -0.681 13.664 11.107 6.305
2.0787690420000047 -0.298 0.342 -0.751 -27.786 -14.145 -0.42
2.090999417000006 -0.257 0.329 -0.738 -73.756 -45.038 -10.847
2.1036522920000067 -0.172 0.299 -0.731 -122.916 -80.275 -24.26
2.1120224170000057 -0.087 0.273 -0.741 -175.489 -100.573 -44.924
2.1208910830000036 -0.112 0.242 -0.637 -230.893 -113.008 -70.733
2.128137250000009 -0.253 0.185 -0.437 -250.137 -119.511 -99.84
2.139155291999998 -0.475 0.122 -0.035 -250.137 -125.786 -136.664
2.1514428330000044 -2.0 -1.512 2.0 250.13 47.969 -11.802
2.1583698750000053 -2.0 -1.353 -1.148 147.084 250.13 2.634
2.1704186250000106 -2.0 0.641 1.183 -1.718 67.634 14.71
2.1823231250000106 -1.45 2.0 0.202 -133.084 -250.137 39.435
2.1889575000000008 -0.628 1.57 -0.042 -144.443 -250.137 48.168
2.2013296249999996 -0.248 0.731 -0.067 -180.031 -64.519 36.489
2.208106083000004 0.227 0.104 0.585 -193.237 32.84 -20.466
2.2198537080000023 -0.128 -0.002 0.948 -174.748 32.435 -97.573
2.232068124999998 -0.612 0.032 0.624 -137.45 61.84 -115.847
2.238409791999999 -0.995 -0.137 0.636 -81.282 150.71 -104.649
2.250634292000001 -1.318 -0.432 1.143 -2.748 139.229 -81.595
2.26262529200001 -1.447 -0.401 0.904 61.58 87.695 -32.115
2.2693982920000053 -1.555 -0.238 0.917 108.198 49.725 30.641
2.2816178329999985 -1.398 0.038 0.699 131.557 38.076 72.962
2.288806082999997 -1.242 0.306 0.498 135.305 25.565 82.832
2.301135667000011 -1.075 0.404 0.333 132.191 3.481 74.695
2.3083090420000048 -0.908 0.345 0.199 124.824 -7.275 68.855
2.3205425419999983 -0.788 0.225 0.101 122.038 -2.878 70.733
2.3325667920000086 -0.63 0.151 0.021 119.641 14.527 66.496
2.339158250000011 -0.541 0.189 -0.066 117.214 29.702 54.366
2.3513643330000065 -0.489 0.249 -0.157 111.252 38.893 41.847
2.358195583000011 -0.437 0.271 -0.314 102.756 50.702 31.053
2.370442875000009 -0.395 0.25 -0.381 98.084 64.053 22.504
2.382554875000011 -0.371 0.213 -0.456 89.519 64.802 14.847
2.3900592920000037 -0.364 0.235 -0.594 75.145 63.855 8.733
2.4022481670000104 -0.363 0.272 -0.643 51.817 53.718 3.916
2.408907417000009 -0.348 0.293 -0.668 23.214 34.374 -0.359
2.4213351670000094 -0.358 0.29 -0.703 -11.519 11.977 -5.992
2.428363833000006 -0.355 0.248 -0.64 -50.58 -25.687 -12.588
2.4402310830000005 -0.284 0.216 -0.661 -94.641 -63.725 -26.626
2.451761083000008 -0.218 0.21 -0.635 -142.725 -97.252 -49.168
2.458572583000006 -0.206 0.209 -0.593 -198.031 -119.901 -77.137
2.4699906670000047 -0.304 0.196 -0.491 -250.137 -128.679 -106.504
2.4816865829999983 -0.849 -0.248 2.0 -177.947 -149.29 -131.435
2.4887882080000026 -2.0 -0.861 2.0 250.13 250.13 -52.931
2.500260250000011 -2.0 -0.661 -1.138 60.626 250.13 -10.366
