Time AX AY AZ GX GY GZ
0.014583083999994528 -0.824 -0.259 0.686 10.863 9.099 2.611
0.026872374999996396 -0.835 -0.262 0.721 12.008 8.382 4.221
0.03540216700000087 -0.851 -0.257 0.759 13.855 8.023 5.756
0.04662916699999187 -0.872 -0.257 0.762 15.374 8.718 7.817
0.05410074999998926 -0.885 -0.258 0.77 18.221 9.954 9.901
0.0661137919999959 -0.922 -0.267 0.767 23.282 12.115 12.26
0.0780239999999992 -0.96 -0.27 0.823 33.756 12.641 17.076
0.08513362499999744 -1.008 -0.256 0.858 49.947 14.336 27.55
0.09712412499999346 -1.005 -0.276 0.854 69.687 17.672 40.71
0.1045452919999974 -1.025 -0.261 0.819 86.008 23.359 55.069
0.11651812499999892 -0.99 -0.245 0.768 96.847 26.985 67.527
0.12379745900000216 -0.944 -0.197 0.692 99.252 29.641 74.626
0.13579599999999914 -0.927 -0.147 0.679 97.13 31.076 76.656
0.14778466699999626 -0.934 -0.116 0.667 95.359 32.718 76.115
0.15489637499999276 -0.934 -0.109 0.646 98.313 34.817 76.275
0.16688933399998973 -0.928 -0.117 0.619 105.252 37.282 79.412
0.1739085419999924 -0.981 -0.127 0.627 119.74 37.947 89.718
0.18602112499999635 -1.024 -0.132 0.646 136.817 32.84 105.718
0.19777987499999483 -0.972 -0.135 0.63 154.496 28.412 118.855
0.20497112500000014 -0.897 -0.111 0.574 168.092 28.122 123.305
0.21662391699999262 -0.872 -0.042 0.557 176.672 24.26 122.55
0.2239709999999917 -0.824 0.042 0.474 180.771 17.015 120.183
0.23576199999999403 -0.774 0.103 0.43 181.641 12.725 117.344
0.24778079200000036 -0.665 0.133 0.331 182.359 14.061 113.321
0.25490141699999924 -0.539 0.132 0.189 179.038 28.908 105.542
0.26696462499999996 -0.428 0.188 -0.016 165.252 58.679 91.679
0.27405641699999705 -0.484 0.257 0.002 152.466 105.206 79.458
0.2860083340000017 -0.659 0.25 0.195 147.511 104.405 105.885
0.29800537500000246 -0.536 0.118 0.208 147.992 73.519 95.382
0.3050194169999969 -0.595 0.228 0.12 144.069 51.969 74.092
0.31711975000000336 -0.6 0.324 0.073 133.863 36.878 76.275
0.3244626669999917 -0.413 0.327 -0.046 114.71 24.695 73.191
0.3365246249999956 -0.269 0.336 -0.188 85.733 20.084 56.733
0.34233333400000276 -0.178 0.374 -0.309 53.153 28.893 39.977
0.3555410419999987 -0.127 0.341 -0.328 23.664 48.542 25.321
0.3678182089999922 -0.144 0.258 -0.258 1.679 46.221 6.397
0.3748984589999935 -0.25 0.216 -0.252 -16.908 17.748 -12.878
0.3866563339999942 -0.292 0.203 -0.372 -42.008 -19.137 -25.718
0.3937803749999915 -0.275 0.225 -0.454 -78.214 -58.794 -35.267
0.4053298749999925 -0.206 0.265 -0.479 -118.328 -87.58 -41.061
0.41719620899999654 -0.133 0.273 -0.57 -168.557 -105.038 -49.29
0.42402216699998974 -0.155 0.285 -0.538 -235.74 -126.45 -65.481
0.43560058399999946 -0.285 0.249 -0.346 -250.137 -162.351 -91.519
0.4473324169999984 -2.0 -0.912 2.0 40.626 -250.137 -74.153
0.4545338340000029 -1.672 -0.893 2.0 250.13 211.557 5.947
0.46623474999999814 -1.103 -0.335 0.058 -69.901 250.13 -21.237
0.47806812499999296 -1.612 1.119 2.0 -175.26 -146.023 -29.229
0.4848844589999999 -1.836 2.0 0.764 -191.611 -250.137 -10.664
0.49666108399999587 -0.932 1.393 -0.177 -213.313 -79.092 27.84
0.5041394169999904 0.37 0.362 0.465 -192.763 17.412 -21.489
0.5154662500000029 1.115 -0.31 0.266 -180.29 120.397 -110.168
0.5271531249999981 0.281 -0.51 0.557 -116.725 204.756 -144.374
0.5337648750000028 -0.532 -0.575 0.395 -57.916 250.13 -139.366
0.545931374999995 -1.494 -0.52 0.893 -18.313 250.13 -106.863
0.5576537089999931 -2.0 -0.208 1.753 29.389 176.481 -19.313
0.5647844169999985 -2.0 0.06 1.385 74.389 -4.557 94.992
0.5770007089999893 -1.948 0.136 0.998 85.176 -106.458 139.908
0.5838349999999934 -1.176 0.204 0.643 80.977 -138.122 140.435
0.5957588750000014 -0.751 0.257 0.523 77.504 -110.832 135.931
0.6080336670000008 -0.361 0.221 0.461 77.389 -51.588 122.466
0.6152428749999928 -0.207 0.2 0.417 80.321 7.573 94.092
0.6272272089999973 -0.375 0.257 0.409 83.939 56.244 70.733
0.6343569999999943 -0.58 0.289 0.447 88.947 79.153 60.695
0.6467649169999987 -0.635 0.263 0.436 93.802 76.29 49.763
0.6540999589999927 -0.619 0.269 0.341 96.656 59.824 39.504
0.666089791999994 -0.586 0.266 0.232 97.321 43.29 33.878
0.6781460839999909 -0.528 0.248 0.092 95.733 32.809 28.527
0.6854785839999948 -0.469 0.251 -0.039 89.496 29.733 25.389
0.6974900839999947 -0.378 0.267 -0.135 79.405 24.214 23.389
0.7048284170000017 -0.292 0.282 -0.241 64.405 19.588 20.756
0.7165617499999968 -0.219 0.301 -0.348 43.947 11.802 14.389
0.7240864999999985 -0.141 0.295 -0.399 18.725 -5.053 5.023
0.7358813749999911 -0.064 0.3 -0.497 -10.603 -28.611 -6.053
0.7476857089999953 0.031 0.281 -0.612 -49.023 -56.893 -23.29
0.7547944169999994 0.058 0.32 -0.649 -99.588 -79.824 -49.496
0.7665256669999962 -0.039 0.358 -0.595 -155.527 -95.847 -75.954
0.7780922919999966 -0.13 0.336 -0.525 -214.198 -106.489 -97.153
0.7850293749999935 -0.24 0.263 -0.388 -250.137 -115.344 -122.595
0.7966200420000007 -0.419 0.208 -0.181 -250.137 -114.771 -156.931
0.8024813339999923 -2.0 -1.69 2.0 17.817 -216.489 -161.504
0.8154358339999987 -2.0 -0.365 2.0 250.13 250.13 17.84
0.8272345419999994 -2.0 -0.909 -1.217 -15.542 250.13 74.053
0.834145792000001 -2.0 1.094 2.0 -108.084 -164.473 69.908
0.8461309169999964 -1.58 1.436 0.951 -91.802 -250.137 57.153
0.8576342499999896 -0.801 1.001 -0.09 -111.641 -162.069 58.534
0.8649830419999915 0.187 0.418 0.479 -111.527 -53.427 13.351
0.8769829999999956 0.761 0.03 0.529 -96.481 28.481 -56.863
0.884113874999997 0.163 0.06 0.263 -81.328 112.046 -89.855
0.8958548749999977 -0.534 -0.104 0.325 -53.519 229.992 -81.656
0.9076392919999989 -1.221 -0.127 0.892 -11.947 250.13 -60.42
0.9147863339999986 -2.0 -0.097 1.54 52.542 148.076 -1.573
0.9267578749999927 -2.0 -0.071 1.168 103.061 -0.611 79.282
0.9338319999999953 -1.678 0.004 0.727 113.901 -51.542 127.046
0.9456631249999958 -1.012 0.174 0.501 112.557 -69.992 138.71
0.9576602499999893 -0.615 0.311 0.327 111.542 -68.374 134.466
0.9647420419999975 -0.226 0.279 0.209 111.092 -32.931 111.557
0.9767550419999935 0.01 0.195 0.009 105.588 32.756 64.397
0.9841169169999944 -0.169 0.253 0.0 102.832 91.321 34.046
0.9958465839999917 -0.43 0.23 0.078 100.275 102.511 26.496
1.0081202499999904 -0.573 0.206 0.002 98.214 78.664 24.405
1.0151932919999922 -0.554 0.243 -0.176 88.763 50.023 27.687
1.0271792919999996 -0.379 0.278 -0.31 71.313 27.779 27.298
1.034476166999994 -0.205 0.323 -0.431 41.824 0.794 17.786
1.0467691669999937 -0.113 0.382 -0.595 1.244 -23.374 2.977
1.0535846249999992 -0.12 0.438 -0.561 -44.931 -55.183 -11.366
1.0654838749999982 -0.081 0.442 -0.529 -91.351 -89.359 -22.603
1.0772120419999993 -0.027 0.409 -0.507 -143.198 -121.641 -37.878
1.084067583999996 -0.058 0.348 -0.398 -196.542 -146.427 -62.534
1.0956257919999928 -0.184 0.268 -0.295 -250.137 -156.153 -96.13
1.1072043340000022 -0.364 0.169 -0.081 -250.137 -150.473 -140.878
1.1139994999999914 -2.0 -2.0 2.0 250.13 -246.015 -153.076
1.1258305839999991 -2.0 -0.263 -2.0 192.588 250.13 0.824
1.1376150839999895 -2.0 -0.317 -0.52 -57.412 250.13 50.412
1.1447824170000018 -2.0 1.538 0.976 -112.122 -250.137 109.908
1.1565505419999909 -0.658 1.386 0.482 -148.977 -250.137 83.221
1.162536750000001 -0.115 1.007 0.025 -165.679 -130.763 60.611
1.1754166669999933 0.969 0.53 0.436 -176.336 -14.58 -12.786
1.1872150840000018 0.799 0.247 0.561 -157.763 89.611 -89.664
1.1939662500000026 -0.096 -0.053 0.519 -113.084 189.221 -99.84
1.2059560839999932 -0.764 -0.355 0.434 -66.511 250.13 -95.336
1.2178832499999999 -1.611 -0.553 1.229 2.198 250.13 -74.634
1.2248856249999989 -2.0 -0.312 1.587 92.557 88.046 7.458
1.2370886249999984 -2.0 -0.101 0.9 129.466 16.115 95.802
1.2438814169999972 -1.523 0.137 0.798 137.466 -25.26 137.008
1.2558707089999928 -0.981 0.301 0.617 137.336 -60.321 137.763
1.268085291999995 -0.749 0.412 0.462 130.107 -62.519 126.084
1.2752127090000016 -0.441 0.352 0.213 123.504 -34.771 115.015
1.2872246669999896 -0.216 0.241 0.123 119.244 13.13 93.107
1.2942872499999964 -0.184 0.212 0.07 117.473 61.344 61.382
1.30645741699999 -0.366 0.3 0.069 115.573 82.046 44.176
1.313622874999993 -0.478 0.331 0.02 110.985 75.214 39.702
1.3256321249999985 -0.472 0.336 -0.061 102.809 50.695 35.115
1.3376808749999896 -0.386 0.352 -0.22 89.779 32.771 31.198
1.3448193750000002 -0.255 0.355 -0.337 70.725 20.595 28.168
1.357060833999995 -0.138 0.361 -0.455 45.947 6.382 21.099
1.3640605840000006 -0.069 0.355 -0.51 14.771 -15.145 7.847
1.3758699589999992 -0.023 0.358 -0.532 -22.55 -43.725 -11.076
1.387922875000001 0.012 0.368 -0.57 -69.611 -88.244 -35.74
1.394729666999993 0.034 0.395 -0.617 -127.061 -129.389 -64.29
1.4063732500000015 0.002 0.369 -0.586 -190.374 -156.473 -96.618
1.4181259169999976 -0.041 0.288 -0.533 -250.137 -160.74 -135.573
1.424770291999991 -0.107 0.181 -0.348 -250.137 -135.733 -189.718
1.4363882499999931 -0.313 0.252 -0.096 -250.137 -123.908 -239.321
1.4481273339999916 -2.0 -1.069 2.0 250.13 -250.137 -171.87
1.4549562090000023 -2.0 -0.336 -1.064 137.992 250.13 46.511
1.4667756669999932 -2.0 -0.477 -0.058 -118.008 241.267 131.916
1.4736028339999905 -1.657 0.597 2.0 -164.924 -158.481 113.55
1.4854104589999935 -0.684 1.631 0.868 -143.473 -250.137 60.168
1.4973145000000017 0.322 1.455 0.333 -107.992 -181.687 -7.115
1.5043397089999928 0.817 0.511 -0.017 -106.771 -28.382 -70.718
1.515995916999998 0.516 -0.207 0.15 -101.969 160.206 -94.13
1.5278612500000008 -0.279 -0.475 0.617 -66.008 250.13 -85.374
1.535081292000001 -1.071 -0.494 1.019 -13.847 250.13 -68.641
1.5468147919999922 -2.0 -0.179 1.584 52.947 170.122 -15.061
1.5540897089999959 -2.0 0.162 1.302 106.687 7.855 84.29
1.5659646249999923 -1.716 0.116 0.918 124.656 -79.573 131.672
1.5776779999999917 -1.065 0.163 0.646 124.962 -122.855 130.092
1.5844081669999923 -0.611 0.276 0.359 116.588 -115.695 114.893
1.5967833750000011 -0.274 0.332 0.231 108.374 -72.046 91.901
1.6041234169999967 -0.043 0.339 0.037 98.603 5.298 53.427
1.6161013339999926 -0.174 0.343 0.091 94.55 75.824 25.267
1.6281177919999976 -0.428 0.288 0.167 95.069 103.534 15.855
1.6352994169999988 -0.631 0.255 0.166 95.321 94.481 13.145
1.6477481670000031 -0.722 0.281 0.039 90.382 64.557 15.603
1.6547830419999912 -0.632 0.298 -0.088 77.603 36.71 18.679
1.666762042000002 -0.455 0.296 -0.209 61.794 15.137 13.977
1.673973250000003 -0.352 0.301 -0.32 42.191 3.496 6.74
1.6862634590000027 -0.279 0.326 -0.417 16.084 -8.679 -0.313
1.6981162089999913 -0.2 0.325 -0.49 -16.916 -23.351 -10.061
1.7048390839999996 -0.139 0.342 -0.499 -57.489 -49.672 -26.893
1.7166062499999981 -0.102 0.382 -0.545 -105.977 -75.626 -46.481
1.7230459589999896 -0.105 0.386 -0.526 -163.695 -95.58 -67.328
1.7350240840000026 -0.179 0.33 -0.444 -225.924 -111.115 -93.794
1.7469647089999967 -0.341 0.264 -0.264 -250.137 -116.863 -124.13
1.7532854170000007 -2.0 -1.691 2.0 163.802 -250.137 -113.107
1.7653504999999967 -2.0 -0.373 0.446 250.13 236.244 -13.992
1.7773426669999992 -2.0 -0.52 -1.143 -21.832 250.13 11.168
1.784144916999992 -2.0 1.053 2.0 -105.832 -99.809 77.344
1.7961339590000023 -1.162 1.191 0.779 -143.122 -250.137 76.458
1.8078446669999977 -0.527 1.291 -0.189 -169.244 -250.137 82.557
1.8148540419999932 0.708 0.698 0.196 -178.046 -79.481 31.435
1.8268782090000002 1.208 0.296 0.366 -177.893 54.794 -73.58
1.8336709590000027 0.23 0.022 0.662 -148.275 150.466 -108.29
1.8456764999999962 -0.528 -0.195 0.757 -105.656 226.595 -91.153
1.8576666669999895 -1.13 -0.392 0.785 -62.802 250.13 -77.924
1.8644655419999907 -1.896 -0.363 1.447 -7.824 210.718 -44.802
1.8766575419999896 -2.0 -0.179 1.448 55.855 50.321 24.565
1.8834568749999931 -1.824 -0.081 1.039 94.573 -36.153 85.595
1.8955487089999963 -1.238 -0.005 0.769 114.893 -76.237 105.847
1.9074261250000006 -0.792 0.102 0.582 125.84 -73.779 100.466
1.914777375 -0.551 0.206 0.498 134.87 -47.687 92.229
1.926754583999994 -0.399 0.22 0.356 143.481 -2.969 82.893
1.9338406669999983 -0.403 0.21 0.297 148.427 45.45 72.382
1.9459214169999939 -0.552 0.218 0.29 152.542 71.412 65.382
1.957951584 -0.587 0.246 0.158 148.84 74.565 58.053
1.9654071249999987 -0.524 0.266 -0.036 139.924 85.053 43.992
1.9772221249999973 -0.507 0.277 0.008 135.489 72.0 39.069
1.9843209590000015 -0.406 0.235 -0.087 131.053 51.069 35.443
1.9963379590000017 -0.322 0.247 -0.226 118.824 52.443 28.809
2.0080686670000034 -0.229 0.257 -0.296 101.45 61.252 21.824
2.0153856249999933 -0.206 0.29 -0.374 82.649 49.313 15.023
2.02738566699999 -0.177 0.339 -0.469 49.435 20.221 4.939
2.034764709000001 -0.104 0.367 -0.607 6.809 0.748 -10.29
2.0465059999999937 -0.075 0.339 -0.655 -39.458 -22.214 -28.221
2.053645333999995 -0.014 0.303 -0.753 -91.595 -37.336 -52.557
2.0654472920000018 -0.105 0.301 -0.647 -151.45 -62.45 -79.985
2.07705241699999 -0.196 0.31 -0.61 -220.557 -86.015 -102.611
2.083838833999991 -0.364 0.329 -0.3 -250.137 -117.481 -123.336
2.095654459000002 -2.0 -1.174 2.0 51.893 -250.137 -98.702
2.1072069589999955 -1.631 -0.224 -0.239 214.832 250.13 -79.13
2.1142862089999994 -2.0 0.155 -0.598 -47.55 250.13 -48.084
2.1260534999999976 -2.0 1.67 2.0 -121.748 -250.137 10.489
2.1378637090000012 -1.171 1.295 0.382 -134.13 -250.137 17.626
2.1449434999999966 -0.515 0.885 -0.506 -191.0 -159.939 9.748
2.1567384169999997 0.512 0.35 0.313 -189.641 -13.573 -49.626
2.1638020839999967 0.981 0.033 0.667 -146.443 99.206 -142.137
2.1757740420000005 0.133 -0.108 0.499 -69.672 209.74 -152.511
2.1874879169999986 -0.943 -0.394 0.206 -18.603 250.13 -106.588
2.194552250000001 -2.0 -0.59 1.221 23.679 250.13 -35.626
2.206327416999997 -2.0 -0.375 2.0 109.656 66.733 94.55
2.2181267090000034 -2.0 -0.03 1.131 147.634 -142.168 186.29
2.2252779169999997 -1.277 0.362 0.546 136.885 -183.611 189.122
2.2370483750000005 -0.349 0.445 0.006 113.168 -135.786 139.275
2.2442757919999963 0.022 0.458 0.091 92.29 -19.824 78.84
2.256422208999993 -0.003 0.359 0.225 94.496 43.87 40.893
2.263709417000001 -0.287 0.268 0.147 104.977 91.977 17.412
2.275667624999997 -0.642 0.216 0.145 111.634 121.191 4.168
2.2876397499999968 -0.933 0.219 0.154 114.702 94.008 8.511
2.2947221249999927 -0.904 0.264 -0.023 105.718 48.412 21.504
2.3066682919999977 -0.635 0.309 -0.301 85.985 27.321 24.405
2.313875374999995 -0.409 0.377 -0.411 61.489 25.687 19.618
2.3260490839999903 -0.325 0.359 -0.468 35.817 20.427 13.855
2.3335840419999982 -0.332 0.315 -0.525 6.206 2.145 6.527
2.3454859590000012 -0.28 0.274 -0.618 -31.832 -24.473 -5.183
2.357201791999998 -0.194 0.28 -0.646 -74.534 -51.282 -22.542
2.364018250000001 -0.109 0.295 -0.703 -118.542 -74.55 -40.221
2.3760238750000013 -0.051 0.251 -0.691 -162.649 -78.649 -59.557
2.3876541669999938 -0.095 0.186 -0.48 -201.58 -79.534 -82.061
2.394364459000002 -0.257 0.142 -0.35 -242.87 -78.275 -107.107
2.4059135419999933 -0.534 0.13 -0.124 -250.137 -81.718 -133.374
2.417919749999996 -2.0 -2.0 2.0 250.13 -107.832 -49.168
2.4244480419999945 -2.0 -0.648 -0.862 172.305 250.13 70.885
2.436516584000003 -1.643 -0.013 0.094 -36.053 93.053 38.702
2.443313291999999 -1.405 1.68 1.534 -124.053 -250.137 39.519
2.4551466249999976 -0.682 1.9 -0.172 -148.603 -250.137 68.481
2.467350209000003 0.059 1.101 -0.159 -189.649 -71.275 42.183
2.4741103340000024 0.753 0.295 0.353 -181.244 63.031 -43.924
2.486117874999991 0.36 -0.0 0.891 -137.13 91.924 -111.733
