Time AX AY AZ GX GY GZ
0.019470625004032627 0.101 0.164 1.159 -7.847 20.55 -37.664
0.032406084006652236 0.111 0.152 1.143 -7.443 20.405 -37.504
0.03870187500433531 0.112 0.145 1.128 -6.641 21.931 -38.221
0.050818084011552855 0.119 0.126 1.135 -5.939 22.634 -39.466
0.0578150000073947 0.117 0.133 1.126 -4.725 23.191 -40.191
0.06984258400916588 0.119 0.133 1.13 -4.038 23.634 -40.229
0.08181229200272355 0.124 0.139 1.123 -3.145 24.626 -39.924
0.08873795899853576 0.122 0.143 1.134 -3.092 25.252 -40.328
0.10069116701197345 0.118 0.144 1.13 -2.542 27.038 -40.626
0.1081190420081839 0.109 0.153 1.127 -1.924 27.962 -41.214
0.11992787499912083 0.098 0.15 1.136 -1.328 28.45 -42.397
0.13214600000355858 0.099 0.162 1.145 -0.863 27.962 -44.366
0.13890108400664758 0.099 0.17 1.15 -1.389 26.74 -45.534
0.15109237500291783 0.101 0.187 1.168 -2.168 25.924 -45.649
0.15830650000134483 0.11 0.194 1.148 -2.824 24.374 -44.374
0.1701362500025425 0.117 0.181 1.154 -3.511 24.351 -42.595
0.18236054200679064 0.118 0.177 1.144 -2.863 24.595 -42.427
0.18929883401142433 0.101 0.171 1.134 -2.573 23.534 -42.168
0.20139420899795368 0.093 0.158 1.15 -2.0 21.122 -41.672
0.20818616700125858 0.096 0.153 1.132 -1.649 19.267 -41.412
0.22030279200407676 0.113 0.147 1.115 -1.366 19.023 -41.328
0.23248979200434405 0.112 0.146 1.115 -0.863 19.779 -42.122
0.23943379199772608 0.11 0.149 1.114 -1.389 19.939 -42.458
0.25122616700537037 0.11 0.132 1.111 -1.046 21.466 -42.992
0.2584225840109866 0.106 0.141 1.112 -1.092 22.557 -44.122
0.2705455420073122 0.095 0.133 1.128 -1.076 22.992 -45.618
0.2825925420038402 0.093 0.137 1.137 -1.275 22.87 -46.344
0.2894054589996813 0.088 0.157 1.141 -0.977 21.504 -46.519
0.3015384590107715 0.105 0.153 1.14 0.557 20.908 -47.374
0.3088128750096075 0.115 0.167 1.133 1.489 20.649 -47.466
0.32086604200594593 0.12 0.183 1.133 2.275 19.885 -45.786
0.32794604200171307 0.119 0.179 1.155 3.183 19.351 -44.733
0.3400518340058625 0.126 0.179 1.168 3.824 18.504 -44.115
0.35235562500020023 0.139 0.186 1.169 3.298 18.656 -43.519
0.3592572920024395 0.142 0.193 1.171 1.756 19.489 -43.656
0.37126287500723265 0.135 0.189 1.173 -0.275 21.023 -44.664
0.3782272500102408 0.122 0.193 1.172 -1.45 21.84 -44.42
0.39049591700313613 0.123 0.184 1.176 -1.611 22.496 -44.168
0.4024372090061661 0.117 0.197 1.176 -1.527 22.405 -43.885
0.4094634170032805 0.106 0.186 1.18 -1.145 21.214 -42.275
0.4215277920011431 0.099 0.18 1.179 -0.656 19.206 -41.153
0.428561417007586 0.089 0.175 1.198 -1.145 16.321 -39.58
0.44055729200772475 0.093 0.163 1.178 -1.626 13.885 -38.061
0.4524202500033425 0.112 0.149 1.165 -2.954 14.298 -38.786
0.4594435840117512 0.109 0.144 1.143 -3.313 16.649 -40.557
0.47154854200198315 0.112 0.145 1.146 -3.885 19.779 -43.366
0.47842358400521334 0.11 0.156 1.142 -4.115 21.908 -45.053
0.4903382920019794 0.107 0.156 1.156 -3.832 23.076 -46.412
0.49738237500423566 0.111 0.157 1.151 -3.359 23.412 -46.626
0.5095282920083264 0.107 0.166 1.154 -2.611 22.939 -46.176
0.5217714590107789 0.104 0.182 1.156 -1.229 21.168 -45.206
0.5284449590108125 0.108 0.183 1.165 -0.26 19.344 -44.214
0.5406272090040147 0.113 0.188 1.171 0.618 17.008 -42.626
0.547683834010968 0.126 0.187 1.183 0.809 15.626 -40.908
0.5599114170036046 0.136 0.182 1.177 -1.122 17.206 -41.237
0.5719740420026937 0.132 0.186 1.167 -3.557 20.305 -42.565
0.579030375010916 0.127 0.177 1.162 -5.595 22.649 -44.389
0.5909158750000643 0.118 0.167 1.168 -6.565 23.885 -45.344
0.5979268340015551 0.109 0.162 1.156 -6.802 23.481 -45.695
0.6100462090107612 0.1 0.164 1.172 -5.275 22.344 -44.756
0.6221632090018829 0.108 0.162 1.168 -3.351 20.466 -43.26
0.6293616670009214 0.111 0.163 1.162 -2.122 18.435 -41.947
0.6413281670102151 0.108 0.16 1.157 -1.168 16.664 -41.145
0.6481485000113025 0.122 0.164 1.166 -1.061 16.16 -41.214
0.6603517920011654 0.133 0.167 1.158 -2.176 17.802 -42.122
0.6726275840046583 0.13 0.178 1.142 -3.908 20.412 -43.435
0.6794832500017947 0.141 0.174 1.159 -5.794 22.626 -45.031
0.6915700840036152 0.128 0.176 1.161 -7.084 23.748 -45.588
0.6985626250097994 0.118 0.172 1.155 -7.298 22.908 -45.115
0.7106731250096345 0.118 0.169 1.159 -6.29 21.511 -43.847
0.7227030000067316 0.124 0.17 1.148 -4.908 20.481 -42.153
0.7298088340030517 0.121 0.16 1.146 -2.794 19.55 -40.939
0.741589124998427 0.117 0.164 1.15 -1.954 18.634 -40.298
0.7487012500059791 0.124 0.161 1.144 -2.137 19.168 -40.374
0.7606797500047833 0.122 0.168 1.144 -3.282 20.344 -41.374
0.7676826250099111 0.109 0.164 1.159 -4.595 21.366 -41.931
0.7798320420115488 0.104 0.158 1.161 -5.786 21.206 -42.847
0.7919531670049764 0.104 0.148 1.163 -6.45 21.443 -43.885
0.7983268750103889 0.11 0.138 1.141 -6.573 21.771 -44.389
0.8106448340113275 0.107 0.133 1.13 -6.115 22.16 -44.702
0.8177922920003766 0.101 0.146 1.134 -4.794 22.473 -44.298
0.8298972920019878 0.1 0.153 1.137 -3.0 21.237 -43.55
0.842087791999802 0.095 0.159 1.142 -1.672 19.809 -42.634
0.8488677090062993 0.104 0.16 1.149 -0.901 18.389 -42.237
0.860866500006523 0.115 0.161 1.157 -0.824 18.427 -42.267
0.867904875005479 0.126 0.169 1.142 -1.908 20.298 -43.107
0.8802532920090016 0.122 0.166 1.155 -3.435 21.641 -43.802
0.8920303339982638 0.119 0.167 1.156 -4.443 22.45 -44.214
0.8992466250056168 0.112 0.168 1.166 -5.275 22.397 -44.038
0.911123541998677 0.106 0.156 1.168 -5.313 22.092 -43.542
0.9183180000109132 0.098 0.155 1.149 -4.672 20.71 -43.267
0.9301028339978075 0.101 0.156 1.159 -4.382 19.046 -42.573
0.9422053340094863 0.104 0.145 1.151 -3.435 18.84 -42.305
0.949252083999454 0.112 0.144 1.146 -2.115 19.763 -42.779
0.9613177920109592 0.105 0.147 1.148 -1.725 20.008 -42.893
0.968186334008351 0.113 0.149 1.156 -1.527 20.229 -43.031
0.9801134170120349 0.115 0.158 1.152 -2.008 21.084 -43.916
0.9926143750053598 0.115 0.159 1.156 -2.763 21.939 -44.229
0.999368750010035 0.118 0.164 1.163 -3.626 22.687 -44.679
1.0116218340117484 0.113 0.163 1.166 -4.29 22.237 -44.176
1.01828708400717 0.116 0.158 1.159 -4.634 22.115 -43.557
1.0308346670062747 0.109 0.163 1.162 -4.336 21.931 -42.412
1.0424886670080014 0.102 0.152 1.167 -3.176 20.427 -40.901
1.0497120000072755 0.093 0.146 1.156 -1.824 18.13 -39.954
1.0615472500066971 0.098 0.15 1.158 -0.962 17.328 -39.511
1.0689021250000224 0.105 0.151 1.144 -1.031 16.916 -40.214
1.0805784170079278 0.108 0.145 1.145 -2.183 18.328 -41.427
1.0874902089999523 0.118 0.147 1.129 -3.908 21.824 -43.573
1.0994880420039408 0.108 0.139 1.137 -5.527 25.168 -45.557
1.1119045840023318 0.1 0.139 1.15 -5.58 26.389 -46.443
1.1187090000021271 0.084 0.153 1.164 -4.893 24.313 -46.092
1.1307734590081964 0.087 0.144 1.177 -3.534 20.901 -43.885
1.1376362919982057 0.095 0.153 1.163 -1.641 18.069 -41.992
1.1499289589992259 0.106 0.162 1.165 -1.122 17.153 -40.656
1.1619644169986714 0.105 0.15 1.163 -1.053 17.824 -40.405
1.1687262500054203 0.108 0.155 1.153 -1.733 18.786 -40.947
1.1808946670062141 0.111 0.152 1.16 -2.718 20.947 -42.641
1.1878106250078417 0.099 0.151 1.157 -3.611 22.58 -44.107
1.200178416998824 0.106 0.152 1.146 -3.427 23.443 -45.099
1.2121639590041013 0.101 0.158 1.145 -3.489 23.672 -45.427
1.2188767500047106 0.102 0.155 1.161 -3.733 22.405 -44.733
1.2309707090025768 0.102 0.167 1.175 -3.443 20.458 -43.672
1.2379472920001717 0.101 0.163 1.162 -3.366 18.481 -41.794
1.2501415420119883 0.106 0.161 1.151 -3.931 17.496 -40.008
1.2622671670105774 0.114 0.149 1.135 -3.992 17.885 -39.603
1.2691156250075437 0.098 0.135 1.12 -3.992 19.45 -41.053
1.2814760840119561 0.088 0.126 1.127 -3.786 20.748 -43.176
1.288222750008572 0.097 0.131 1.139 -2.656 21.664 -45.069
1.3003611250023823 0.093 0.134 1.148 -1.664 21.611 -46.176
1.3126167919981526 0.101 0.145 1.15 -1.29 21.313 -45.931
1.3195131670072442 0.107 0.153 1.152 -0.656 20.924 -44.397
1.3314925000013318 0.109 0.164 1.147 -0.565 20.084 -42.832
1.3384310000110418 0.104 0.158 1.16 -1.344 18.603 -41.725
1.3505910000094445 0.099 0.151 1.157 -1.947 18.519 -41.099
1.3624376250081696 0.106 0.147 1.143 -2.985 18.794 -41.84
1.369646749997628 0.097 0.137 1.144 -3.13 20.0 -42.84
1.381535292006447 0.095 0.135 1.136 -2.382 21.122 -44.099
1.38883187501051 0.097 0.148 1.162 -1.901 20.847 -44.351
1.4006130420020781 0.094 0.147 1.153 -0.176 19.969 -44.298
1.4077212499978486 0.106 0.16 1.156 0.55 19.344 -44.115
1.4198625840072054 0.117 0.164 1.162 -0.023 19.214 -43.802
1.431834709001123 0.121 0.168 1.157 -1.443 19.557 -44.252
1.4389538340037689 0.12 0.16 1.161 -2.344 20.611 -44.473
1.450769584000227 0.114 0.163 1.171 -2.74 20.458 -43.916
1.4579386670084205 0.117 0.168 1.182 -3.221 20.733 -43.244
1.469909125007689 0.11 0.165 1.171 -2.977 20.771 -42.565
1.482064249998075 0.114 0.157 1.165 -3.015 20.305 -42.412
1.4888778750027996 0.119 0.146 1.149 -3.618 21.168 -42.962
1.501013959001284 0.121 0.15 1.153 -3.183 22.519 -44.061
1.5079976670094766 0.123 0.15 1.15 -2.725 22.183 -43.931
1.5202269590081414 0.108 0.151 1.156 -1.878 21.221 -42.382
1.5323063750111032 0.109 0.161 1.162 -0.618 19.618 -40.832
1.5389775000076042 0.114 0.145 1.163 0.076 19.641 -39.832
1.5513917089992901 0.104 0.156 1.154 -0.878 20.458 -40.71
1.5582392920041457 0.108 0.149 1.15 -1.924 22.214 -42.031
1.5703985000000102 0.101 0.162 1.173 -2.977 22.763 -43.046
1.5825307500053896 0.104 0.153 1.165 -3.931 23.153 -43.16
1.5894606250076322 0.088 0.156 1.169 -4.786 22.771 -42.504
1.6015763750037877 0.082 0.149 1.17 -4.443 21.206 -42.008
1.6085385000042152 0.076 0.144 1.171 -3.878 19.534 -42.481
1.6205752500100061 0.082 0.139 1.162 -3.069 19.443 -42.389
1.6324767090118257 0.094 0.15 1.163 -2.359 19.198 -42.214
1.6397128340031486 0.099 0.148 1.158 -2.542 19.13 -42.504
1.6515199590066914 0.095 0.141 1.157 -2.458 19.107 -42.672
1.6586875840002904 0.106 0.143 1.149 -2.557 19.328 -42.588
1.670742500005872 0.103 0.144 1.151 -2.115 20.351 -42.939
1.6778202499990584 0.099 0.138 1.145 -1.817 21.42 -44.137
1.6895738340099342 0.094 0.153 1.161 -2.061 21.382 -44.382
1.701724958998966 0.091 0.151 1.162 -2.496 21.481 -44.977
1.70867858400743 0.096 0.15 1.161 -2.397 20.969 -45.305
1.7208277500030817 0.104 0.159 1.172 -2.435 20.008 -44.313
1.727702333999332 0.107 0.164 1.161 -2.71 18.901 -42.244
1.739891750010429 0.11 0.155 1.157 -2.573 18.794 -41.038
1.7521098340075696 0.1 0.159 1.149 -2.916 18.252 -40.71
1.7590425840026 0.105 0.147 1.159 -3.656 18.344 -41.084
1.7710876670025755 0.102 0.141 1.147 -3.725 18.687 -41.809
1.7777751250105212 0.103 0.132 1.15 -3.565 19.519 -42.504
1.790063459004159 0.105 0.134 1.143 -3.71 21.252 -42.969
1.802094833998126 0.103 0.13 1.144 -2.87 22.214 -43.397
1.8090551250061253 0.093 0.139 1.154 -2.168 21.756 -43.282
1.8210236669983715 0.098 0.147 1.142 -1.687 21.504 -43.153
1.8284795840008883 0.089 0.148 1.15 -1.511 20.901 -42.534
1.8400529170030495 0.085 0.159 1.165 -1.023 19.611 -42.061
1.852205834002234 0.091 0.15 1.158 -0.939 18.412 -41.71
1.859170791998622 0.107 0.148 1.153 -0.824 19.008 -42.229
1.8717082090006443 0.106 0.149 1.15 -1.244 20.634 -43.344
1.8782422090007458 0.106 0.147 1.149 -1.87 22.26 -44.115
1.8903611249988899 0.1 0.147 1.157 -2.29 23.023 -44.58
1.9025414170027943 0.089 0.149 1.158 -2.847 22.099 -44.496
1.9094858750031563 0.09 0.159 1.171 -2.595 21.206 -44.237
1.921580250011175 0.082 0.159 1.175 -2.107 19.672 -43.863
1.9284228750038892 0.095 0.163 1.15 -2.038 18.863 -43.214
1.9406180000078166 0.102 0.154 1.15 -1.924 18.573 -42.267
1.9526354999979958 0.103 0.149 1.154 -1.603 18.924 -41.71
1.959724542000913 0.102 0.14 1.143 -0.855 20.771 -42.252
1.9714798750064801 0.099 0.141 1.151 -0.84 22.115 -43.466
1.978709125003661 0.098 0.156 1.154 -1.679 22.229 -44.489
1.9907740420021582 0.097 0.155 1.165 -2.351 21.672 -44.504
1.9978925840114243 0.086 0.158 1.17 -2.443 19.855 -43.588
2.0096694590029074 0.096 0.152 1.156 -2.809 18.817 -42.183
2.0217619169998216 0.097 0.144 1.154 -2.198 18.55 -41.641
2.028719792011543 0.089 0.151 1.158 -2.664 18.511 -41.855
2.0409323750063777 0.092 0.137 1.155 -3.092 18.985 -43.046
2.0475689169979887 0.098 0.138 1.146 -3.137 19.382 -44.023
2.0600873340008548 0.108 0.139 1.135 -2.557 20.924 -44.809
2.0721147500007646 0.103 0.148 1.154 -2.084 22.779 -45.305
2.078965334003442 0.092 0.146 1.148 -1.443 23.382 -45.237
2.0909965419996297 0.079 0.159 1.162 -0.397 20.672 -43.969
2.0977745420095744 0.082 0.155 1.178 -0.16 17.756 -42.947
2.110156916998676 0.099 0.165 1.166 -0.611 16.046 -42.053
2.1220450840046396 0.104 0.156 1.156 -0.954 16.145 -41.74
2.1291412499995204 0.113 0.156 1.154 -1.931 17.153 -40.924
2.141055750005762 0.11 0.15 1.149 -2.313 18.885 -42.435
2.14796012500301 0.112 0.141 1.14 -2.664 20.687 -43.565
2.1601161250000587 0.105 0.145 1.143 -2.863 21.802 -44.214
2.1721910420019412 0.088 0.147 1.147 -1.992 21.313 -44.031
2.179179958999157 0.082 0.146 1.154 -1.573 19.771 -43.336
2.191247791997739 0.086 0.146 1.164 -1.16 17.847 -42.947
2.198275000002468 0.098 0.139 1.154 -1.191 17.176 -42.298
2.2103298340080073 0.103 0.148 1.156 -1.443 17.763 -42.336
2.2224612920108484 0.091 0.159 1.148 -1.481 18.206 -42.198
2.229700167008559 0.092 0.158 1.16 -2.038 18.985 -43.053
2.241651250005816 0.079 0.165 1.156 -1.939 18.885 -43.221
2.248181584000122 0.075 0.154 1.155 -1.168 17.954 -43.679
2.2604640000063227 0.07 0.15 1.166 -0.336 16.198 -43.534
2.272446292001405 0.081 0.143 1.154 -0.328 14.695 -43.244
2.2797537090082187 0.088 0.146 1.16 -0.718 13.099 -43.275
2.291579709009966 0.094 0.143 1.163 -1.557 12.588 -42.664
2.298674999998184 0.112 0.138 1.144 -1.977 13.412 -42.908
2.310555584001122 0.109 0.133 1.146 -2.466 14.198 -43.275
2.317989041999681 0.114 0.136 1.146 -2.351 15.145 -43.794
2.3296752919995924 0.112 0.145 1.139 -1.702 16.046 -44.015
2.3417719999997644 0.124 0.146 1.146 -1.015 16.603 -44.664
2.348676499997964 0.129 0.163 1.151 -0.779 17.427 -44.458
2.360845250004786 0.135 0.167 1.155 -1.084 18.435 -44.305
2.367820875006146 0.131 0.181 1.165 -2.328 18.389 -43.718
2.3798717919999035 0.128 0.167 1.179 -3.565 18.802 -43.282
2.3920922920078738 0.128 0.156 1.163 -3.664 19.252 -43.115
2.399051459011389 0.135 0.158 1.159 -3.672 19.466 -42.618
2.411173750006128 0.132 0.146 1.156 -3.237 20.351 -41.481
2.417798792012036 0.113 0.154 1.154 -2.313 20.053 -40.885
2.4303242090099957 0.107 0.155 1.159 -1.336 19.427 -40.626
2.4420692499988945 0.105 0.149 1.157 -0.962 19.0 -40.779
2.4491627090028487 0.103 0.146 1.163 -1.145 18.87 -41.695
2.4610645420034416 0.112 0.154 1.168 -2.099 19.656 -42.786
2.468371292008669 0.113 0.15 1.164 -3.229 20.924 -43.733
2.4800708750117337 0.106 0.154 1.167 -4.328 21.527 -44.389
2.492199250002159 0.11 0.154 1.155 -4.191 21.252 -44.496
2.4991708750021644 0.105 0.162 1.165 -3.931 20.473 -43.359
2.5114637090009637 0.108 0.155 1.173 -3.74 19.046 -42.061
2.518246542007546 0.103 0.155 1.165 -2.55 17.969 -40.931
2.530324917010148 0.109 0.147 1.148 -2.786 17.824 -41.061
