Time AX AY AZ GX GY GZ
0.019296707992907614 0.221 0.744 1.011 -96.947 50.427 -30.427
0.026028583000879735 0.198 0.722 1.005 -97.71 50.901 -31.771
0.03802354099752847 0.18 0.709 1.012 -98.214 48.084 -30.084
0.050069040997186676 0.176 0.684 1.019 -97.527 44.489 -26.947
0.05694716599828098 0.159 0.66 0.996 -96.282 42.008 -22.55
0.06905237499449868 0.152 0.625 0.965 -94.55 39.748 -19.038
0.0761044579994632 0.143 0.583 0.97 -92.489 38.71 -17.626
0.08794904100068379 0.138 0.554 0.962 -91.42 38.58 -16.832
0.0997329579986399 0.136 0.514 0.98 -90.74 40.473 -18.435
0.10670387500431389 0.103 0.505 0.986 -90.221 40.519 -19.954
0.1190650829958031 0.086 0.482 0.997 -90.405 39.389 -20.573
0.12579329099389724 0.081 0.46 1.007 -90.267 36.244 -21.718
0.1376109160046326 0.093 0.421 0.991 -88.588 34.092 -23.618
0.14947649999521673 0.106 0.407 0.938 -86.977 34.298 -24.931
0.1564631249930244 0.126 0.391 0.928 -85.466 37.237 -25.939
0.16868858299858402 0.098 0.384 0.926 -83.328 39.863 -26.29
0.17535508300352376 0.082 0.358 0.937 -80.977 41.672 -25.466
0.18719912499364 0.068 0.337 0.951 -79.076 41.527 -25.282
0.1992169580043992 0.052 0.317 0.978 -77.221 40.0 -25.229
0.2059862079913728 0.034 0.295 0.969 -75.748 37.473 -24.489
0.21822883299319074 0.039 0.277 0.968 -75.084 33.947 -23.496
0.23024204099783674 0.059 0.262 0.935 -73.038 33.237 -23.931
0.2369719160051318 0.062 0.233 0.923 -70.702 34.992 -25.389
0.2489630829950329 0.065 0.215 0.924 -67.664 37.573 -26.664
0.25570979100302793 0.048 0.193 0.932 -63.191 38.183 -28.107
0.26794108300236985 0.035 0.185 0.924 -60.931 38.473 -29.695
0.28007500000239816 0.046 0.168 0.934 -58.771 38.87 -31.176
0.28666208300273865 0.024 0.166 0.949 -55.649 38.061 -32.664
0.29866445799416397 0.025 0.163 0.953 -53.71 36.198 -33.901
0.30550754099385813 0.03 0.146 0.965 -51.74 36.496 -35.634
0.31784045799577143 0.027 0.153 0.949 -51.015 36.74 -37.344
0.32974095799727365 0.034 0.134 0.967 -49.389 35.901 -38.473
0.33644108299631625 0.041 0.127 0.96 -47.191 34.58 -39.634
0.3485542909911601 0.046 0.126 0.949 -44.45 33.061 -40.42
0.35550483300175983 0.05 0.109 0.966 -40.198 32.771 -42.817
0.36774429099750705 0.057 0.12 0.966 -36.076 30.924 -44.29
0.3796522500051651 0.083 0.124 0.955 -31.916 30.786 -46.466
0.3863407909957459 0.1 0.114 0.974 -28.069 33.252 -48.153
0.39838079099718016 0.077 0.125 0.991 -25.061 33.771 -47.527
0.40406645799521357 0.079 0.125 1.017 -23.603 32.305 -44.985
0.41731195799366105 0.074 0.112 1.027 -23.191 32.687 -43.015
0.4292856249958277 0.051 0.09 1.026 -23.855 31.939 -41.634
0.43624516599811614 0.031 0.074 1.038 -24.954 29.038 -39.221
0.44823700000415556 0.033 0.058 1.028 -24.099 25.794 -37.481
0.46032004099106416 0.051 0.037 0.995 -22.275 25.702 -36.992
0.46722379099810496 0.047 0.021 0.99 -19.435 27.771 -37.634
0.47921008299454115 0.045 0.018 0.989 -15.466 29.71 -39.191
0.48603783300495706 0.045 0.025 0.991 -10.71 31.427 -41.725
0.49811437500466127 0.048 0.041 1.001 -7.74 33.496 -44.504
0.5100262909982121 0.057 0.051 1.01 -4.954 34.679 -48.229
0.5173129579925444 0.042 0.079 1.023 -2.977 34.542 -48.954
0.5290007909934502 0.055 0.086 1.049 -0.756 33.252 -48.275
0.536303125001723 0.055 0.101 1.06 0.626 30.634 -46.687
0.5484006250044331 0.054 0.113 1.09 1.947 28.084 -43.626
0.5555809579964262 0.044 0.112 1.09 2.695 24.107 -42.069
0.5677485409978544 0.052 0.117 1.086 2.45 22.458 -42.366
0.5797489579999819 0.062 0.115 1.072 1.618 22.076 -45.687
0.5866467909945641 0.083 0.108 1.064 1.481 23.824 -49.573
0.5987446660001297 0.109 0.123 1.042 1.214 28.649 -54.412
0.6062150409998139 0.119 0.136 1.041 0.237 36.672 -58.084
0.6182483330048854 0.096 0.139 1.067 -1.183 41.412 -59.824
0.6300623749993974 0.083 0.135 1.105 -0.435 43.176 -58.214
0.6371174160012743 0.061 0.135 1.122 1.458 42.336 -54.573
0.6493454159935936 0.035 0.152 1.153 4.099 37.16 -48.351
0.6565596250002272 0.011 0.154 1.17 6.748 30.427 -41.282
0.6683970830054022 -0.001 0.146 1.173 8.985 23.985 -34.977
0.67433870799141 -0.024 0.146 1.177 10.71 19.473 -31.641
0.6875247080024565 -0.021 0.132 1.161 11.702 17.634 -31.87
0.6992531659925589 -0.005 0.134 1.165 12.351 19.481 -35.779
0.706253166004899 0.0 0.148 1.178 11.511 23.458 -41.74
0.7183947909943527 0.003 0.172 1.188 8.0 26.107 -47.206
0.725563832995249 0.026 0.184 1.193 3.29 28.473 -51.153
0.7376415000035195 0.018 0.202 1.223 -1.16 28.496 -52.344
0.7494723330019042 0.016 0.199 1.234 -3.794 26.321 -49.802
0.7564940830052365 0.014 0.199 1.228 -5.977 22.55 -46.237
0.7687272909970488 0.01 0.185 1.227 -6.695 18.198 -42.076
0.7760272500017891 0.009 0.177 1.196 -6.573 15.069 -39.969
0.7874172500014538 0.015 0.17 1.202 -5.351 13.557 -39.092
0.7999346659926232 0.024 0.173 1.189 -4.328 13.321 -39.489
0.8066285410022829 0.034 0.162 1.188 -4.397 14.42 -41.145
0.8189621659985278 0.04 0.159 1.19 -4.588 15.321 -42.45
0.8257860830053687 0.047 0.153 1.176 -4.412 15.229 -43.29
0.8380066660029115 0.055 0.161 1.167 -5.275 15.855 -43.511
0.850141540999175 0.062 0.164 1.162 -5.87 17.595 -43.237
0.8569890829967335 0.07 0.164 1.176 -6.832 18.641 -44.626
0.8690742079925258 0.061 0.18 1.176 -8.305 20.023 -44.58
0.8760558749927441 0.046 0.173 1.19 -8.55 19.412 -43.595
0.8881944159948034 0.027 0.175 1.187 -8.588 17.756 -41.405
0.9000245829956839 0.021 0.162 1.194 -7.901 14.504 -39.137
0.9070981660042889 0.013 0.165 1.175 -6.878 10.313 -36.962
0.9192457079916494 0.023 0.153 1.161 -6.29 8.099 -36.313
0.9259929160034517 0.046 0.156 1.156 -5.924 7.84 -37.183
0.938362375003635 0.06 0.136 1.134 -5.672 10.229 -38.695
0.9441528750030557 0.086 0.125 1.117 -5.832 14.29 -40.802
0.9572069580026437 0.083 0.124 1.11 -6.573 20.115 -42.695
0.969554875002359 0.065 0.116 1.132 -7.015 22.985 -44.679
0.9766934999934165 0.045 0.132 1.129 -7.985 23.336 -45.076
0.9886099159921287 0.041 0.128 1.149 -7.824 21.305 -44.412
0.9955448749969946 0.033 0.141 1.14 -6.504 18.977 -43.13
1.0076750830048695 0.047 0.129 1.141 -5.542 17.038 -42.153
1.0195671249966836 0.056 0.13 1.133 -4.45 15.962 -41.504
1.0266790829919046 0.069 0.133 1.116 -3.74 16.275 -42.26
1.0385922499990556 0.091 0.143 1.107 -2.756 19.382 -44.382
1.0455676249985117 0.098 0.151 1.099 -2.382 24.031 -46.603
1.0579064579942496 0.098 0.149 1.115 -1.893 27.634 -47.908
1.0698184159991797 0.074 0.159 1.145 -1.107 28.664 -48.069
1.0766482909966726 0.05 0.17 1.174 -0.237 25.725 -46.725
1.0888514580001356 0.042 0.177 1.174 -0.58 21.916 -44.924
1.0956988749967422 0.049 0.175 1.162 -1.588 19.16 -42.702
1.1078906659968197 0.056 0.174 1.165 -2.832 17.817 -40.527
1.1203324999951292 0.036 0.166 1.166 -3.443 16.733 -39.176
1.1269368329958525 0.035 0.148 1.175 -3.435 16.534 -38.542
1.1390425830031745 0.03 0.134 1.16 -3.313 18.275 -40.45
1.1459991659939988 0.035 0.134 1.151 -3.664 20.092 -42.397
1.1581409999926109 0.039 0.125 1.143 -3.809 21.237 -44.389
1.1699839999928372 0.025 0.125 1.14 -3.809 22.015 -45.794
1.1770743749948451 0.032 0.134 1.148 -3.779 22.42 -46.725
1.1890160829934757 0.016 0.132 1.157 -3.122 21.122 -46.412
1.196284249992459 0.026 0.13 1.168 -1.863 18.794 -45.511
1.2080642499931855 0.036 0.141 1.155 -1.183 16.298 -44.618
1.2201996249932563 0.052 0.135 1.147 -0.122 15.328 -43.214
1.2273659999918891 0.065 0.143 1.128 0.466 16.687 -43.221
1.2394309579976834 0.059 0.155 1.142 0.481 18.0 -43.008
1.2466815410007257 0.05 0.147 1.158 0.664 19.489 -42.87
1.2586393329984276 0.044 0.166 1.167 -0.664 20.885 -44.115
1.2654366249917075 0.042 0.152 1.18 -1.466 21.794 -45.756
1.2775220409967005 0.043 0.16 1.186 -2.015 22.084 -47.511
1.2898957909928868 0.045 0.161 1.173 -2.634 21.985 -48.527
1.2967328329978045 0.058 0.166 1.172 -4.0 22.466 -48.107
1.30888316599885 0.054 0.164 1.193 -4.145 20.534 -46.496
1.3157673329988029 0.049 0.163 1.171 -4.336 18.267 -43.832
1.3280103750003036 0.053 0.149 1.172 -3.84 16.412 -41.992
1.3397087079938501 0.068 0.135 1.165 -2.863 15.252 -41.344
1.3469588750012917 0.067 0.135 1.139 -2.183 14.885 -40.947
1.358873165998375 0.08 0.142 1.139 -2.328 16.496 -41.099
1.3662190829927567 0.078 0.141 1.136 -2.29 20.092 -42.634
1.3779163750004955 0.062 0.14 1.164 -2.366 22.137 -44.359
1.38999724999303 0.059 0.145 1.17 -2.748 22.557 -45.13
1.3969578329997603 0.057 0.141 1.163 -2.985 22.947 -45.527
1.409418082999764 0.053 0.142 1.148 -3.061 22.527 -44.565
1.415958124998724 0.062 0.146 1.153 -1.748 21.305 -42.71
1.428182374991593 0.05 0.147 1.16 -1.183 19.023 -40.328
1.440276833003736 0.042 0.138 1.175 -0.481 15.626 -38.42
1.447204166004667 0.042 0.14 1.175 0.473 14.374 -37.908
1.4593192500033183 0.052 0.151 1.167 0.534 14.542 -38.313
1.4664627909951378 0.058 0.144 1.161 0.58 16.115 -39.435
1.4786984999955166 0.047 0.149 1.164 0.511 18.336 -41.481
1.4855657500011148 0.048 0.156 1.162 -0.366 20.053 -43.885
1.497619500005385 0.054 0.148 1.159 -1.511 21.237 -46.504
1.5098092910047853 0.069 0.16 1.165 -3.275 22.71 -47.924
1.516960790992016 0.073 0.161 1.177 -4.992 22.687 -47.527
1.5287137080013053 0.071 0.177 1.181 -6.458 21.588 -44.977
1.5358598329912638 0.065 0.16 1.183 -6.702 20.954 -41.153
1.5479156249930384 0.042 0.15 1.175 -6.084 18.0 -37.908
1.5598046249942854 0.027 0.119 1.177 -4.626 14.229 -36.229
1.5672374999994645 0.031 0.124 1.147 -3.344 12.756 -36.771
1.578915332996985 0.043 0.116 1.139 -2.153 13.183 -38.618
1.586123040993698 0.05 0.118 1.129 -1.603 15.473 -41.183
1.597918874991592 0.057 0.123 1.124 -1.908 19.443 -43.145
1.6100315829971805 0.063 0.122 1.133 -2.435 23.168 -45.809
1.6166979999979958 0.041 0.138 1.148 -3.26 24.458 -47.13
1.6290155000024242 0.047 0.144 1.158 -3.809 23.885 -47.145
1.635927499999525 0.047 0.146 1.162 -4.58 23.092 -46.809
1.6479990410007304 0.05 0.138 1.153 -4.0 22.29 -46.038
1.6603014580032323 0.052 0.149 1.147 -3.008 21.29 -44.595
1.6671698330028448 0.053 0.146 1.142 -1.42 20.16 -42.832
1.6794526659941766 0.055 0.145 1.147 0.473 19.29 -42.084
1.6865131249942351 0.057 0.15 1.148 1.298 18.687 -41.58
1.6985962909966474 0.057 0.158 1.14 1.244 19.191 -41.756
1.7051155829976778 0.062 0.148 1.141 -0.702 20.092 -43.137
1.7176617910008645 0.059 0.155 1.153 -2.435 21.427 -44.748
1.7297330000001239 0.061 0.15 1.156 -3.534 22.206 -45.42
1.73666370799765 0.06 0.154 1.159 -3.771 22.962 -45.466
1.7485255409992533 0.052 0.151 1.169 -2.542 23.076 -44.702
1.7557923330023186 0.05 0.154 1.168 -1.382 22.145 -43.504
1.7677304999961052 0.045 0.147 1.173 -1.275 20.649 -43.084
1.7797450829966692 0.058 0.144 1.165 -0.702 19.595 -43.366
1.7866703329927986 0.073 0.16 1.156 -1.542 20.817 -43.176
1.7990050410007825 0.063 0.142 1.161 -1.611 21.252 -42.557
1.8060162909969222 0.049 0.156 1.168 -1.466 20.748 -41.588
1.8180025829933584 0.054 0.147 1.166 -1.244 21.336 -40.992
1.8300204999977723 0.045 0.143 1.163 -1.763 22.511 -42.061
1.8369412500032922 0.034 0.141 1.164 -2.359 23.061 -43.458
1.849200374999782 0.037 0.151 1.164 -3.344 23.092 -45.351
1.8560161659988808 0.037 0.156 1.163 -4.122 22.763 -46.198
1.868134749995079 0.046 0.152 1.167 -4.435 21.725 -45.511
1.8802848329942208 0.052 0.148 1.173 -3.511 20.145 -44.389
1.8872141659958288 0.062 0.145 1.161 -2.374 19.351 -43.168
1.8990035409951815 0.071 0.141 1.156 -1.702 19.45 -41.664
1.906258290997357 0.065 0.142 1.157 -1.634 20.221 -41.656
1.9182229580037529 0.055 0.146 1.157 -1.664 20.046 -41.786
1.9302652909973403 0.057 0.14 1.142 -1.366 20.58 -41.519
1.937148665994755 0.053 0.136 1.163 -1.122 20.527 -41.397
1.9493584580050083 0.053 0.133 1.144 -1.122 20.618 -41.031
1.9563110829913057 0.049 0.128 1.155 -1.977 20.969 -40.29
1.9682316660037031 0.045 0.122 1.139 -1.931 21.321 -39.954
1.9741871659934986 0.029 0.117 1.149 -2.252 21.687 -39.634
1.987530083002639 0.036 0.104 1.133 -1.779 21.427 -40.137
1.9996022499981336 0.028 0.119 1.13 -1.168 21.756 -41.786
2.006554249994224 0.021 0.117 1.152 -0.084 21.817 -42.87
2.018614125001477 0.034 0.135 1.155 1.092 21.252 -44.336
2.025779749994399 0.039 0.15 1.161 1.595 21.603 -45.878
2.038025749992812 0.06 0.16 1.151 1.427 22.855 -46.924
2.0501381249923725 0.059 0.179 1.164 1.298 23.374 -46.687
2.0570352079957956 0.057 0.183 1.189 0.71 22.427 -45.618
2.0689983750053216 0.055 0.198 1.189 0.092 20.504 -43.649
2.0763928329979535 0.063 0.196 1.175 -0.336 20.58 -41.855
2.0881189579959027 0.064 0.191 1.173 -2.26 21.176 -41.023
2.1002178749913583 0.042 0.174 1.18 -3.718 20.573 -40.611
2.107129166004597 0.032 0.16 1.184 -4.321 18.634 -40.794
2.119450040991069 0.031 0.141 1.182 -4.794 16.824 -41.038
2.1262171659909654 0.027 0.13 1.169 -3.924 15.649 -41.069
2.138330500005395 0.039 0.126 1.147 -2.282 15.618 -42.176
2.1441007910034386 0.052 0.135 1.132 -1.962 18.0 -44.122
2.1574027909955475 0.052 0.14 1.14 -2.313 19.382 -46.275
2.1696550409978954 0.043 0.157 1.165 -1.908 19.702 -47.221
2.1764047500037123 0.055 0.174 1.185 -2.496 18.672 -46.756
2.18901858299796 0.059 0.186 1.182 -3.725 16.42 -44.0
2.1955120409984374 0.061 0.18 1.168 -5.053 15.641 -40.817
2.2076914999925066 0.063 0.166 1.147 -6.107 15.046 -38.45
2.2195287909999024 0.044 0.15 1.152 -6.313 15.366 -36.947
2.226374374993611 0.03 0.129 1.153 -5.489 15.183 -37.382
2.2384004579944303 0.032 0.108 1.144 -4.641 16.382 -39.168
2.2453250410035253 0.03 0.113 1.152 -4.344 17.992 -41.786
2.2574039159953827 0.026 0.11 1.144 -3.397 19.595 -44.359
2.269701790995896 0.041 0.119 1.142 -2.992 21.336 -46.405
2.2764973330049543 0.039 0.126 1.142 -1.924 22.504 -47.382
2.2888007080036914 0.05 0.14 1.159 -1.458 23.099 -47.74
2.2953615830047056 0.049 0.158 1.173 -1.275 22.435 -47.389
2.3077072909945855 0.055 0.166 1.183 -1.351 21.931 -46.481
2.319977999999537 0.05 0.179 1.183 -1.42 20.275 -44.855
2.326930583003559 0.052 0.172 1.19 -0.863 18.695 -43.168
2.3390181249997113 0.04 0.175 1.197 -0.573 16.603 -42.023
2.345814208005322 0.047 0.174 1.177 -1.344 15.542 -40.466
2.3580455409974093 0.062 0.152 1.159 -2.74 16.244 -40.305
2.369920415992965 0.067 0.138 1.135 -4.076 18.893 -41.504
2.377248332995805 0.065 0.13 1.135 -4.344 22.527 -44.076
2.388992958003655 0.04 0.135 1.148 -4.275 24.107 -46.023
2.3963043749972712 0.039 0.136 1.161 -4.344 22.672 -45.756
2.4083916660019895 0.043 0.143 1.159 -3.221 21.527 -45.344
2.42039112499333 0.046 0.143 1.145 -2.511 21.16 -44.115
2.427173791002133 0.049 0.143 1.155 -1.74 21.153 -43.733
2.439423125004396 0.047 0.152 1.162 -0.656 21.176 -43.809
2.4463127499911934 0.056 0.151 1.16 -0.405 21.115 -43.954
2.4583544579945737 0.066 0.155 1.163 -0.511 21.008 -43.435
2.4640664579928853 0.074 0.161 1.153 -0.931 21.924 -43.115
2.477382957993541 0.072 0.154 1.141 -1.321 23.786 -42.87
2.489752082998166 0.053 0.154 1.14 -1.718 24.13 -42.824
2.4964709999912884 0.045 0.138 1.156 -1.916 23.397 -42.779
2.5086172500014072 0.046 0.138 1.158 -1.992 22.687 -43.053
2.5155481249967124 0.045 0.138 1.157 -2.031 21.885 -42.878
2.5277079160005087 0.045 0.133 1.154 -1.282 21.45 -42.618
