Time AX AY AZ GX GY GZ
0.014092290992266499 0.062 0.089 1.155 -2.687 21.344 -42.733
0.026122875002329238 0.06 0.084 1.157 -1.977 21.26 -43.847
0.03313279099529609 0.053 0.084 1.162 -0.832 20.595 -44.176
0.045344665995799005 0.057 0.097 1.165 0.168 19.878 -43.817
0.05090204099542461 0.069 0.1 1.169 0.847 19.695 -43.015
0.06437762499263044 0.072 0.104 1.168 0.847 19.832 -42.267
0.07680816599167883 0.064 0.108 1.174 -0.656 19.351 -41.374
0.08333537499129307 0.069 0.103 1.175 -1.84 19.137 -41.649
0.09578887499810662 0.06 0.101 1.177 -2.527 19.542 -42.817
0.1025332909921417 0.062 0.11 1.166 -3.412 18.87 -44.122
0.11448229099914897 0.065 0.105 1.164 -3.397 20.885 -45.153
0.12682983299600892 0.067 0.11 1.159 -3.252 22.45 -45.832
0.13361433299724013 0.062 0.114 1.168 -3.435 22.435 -45.679
0.14597087500442285 0.066 0.111 1.178 -2.977 21.649 -44.947
0.1529578329937067 0.063 0.112 1.175 -3.214 20.015 -44.107
0.1647827499982668 0.061 0.112 1.187 -2.336 17.649 -42.557
0.1767307499976596 0.069 0.116 1.175 -2.0 16.16 -41.282
0.18373895800323226 0.075 0.113 1.158 -2.282 16.84 -40.275
0.19583312499162275 0.072 0.101 1.154 -2.221 18.603 -40.901
0.20269954099785537 0.065 0.099 1.16 -2.321 19.397 -42.382
0.21474045800277963 0.069 0.103 1.155 -2.229 21.008 -43.443
0.2269337909965543 0.068 0.089 1.162 -2.107 22.26 -44.084
0.23367641599907074 0.055 0.095 1.18 -2.282 21.878 -44.328
0.2458971659943927 0.051 0.096 1.178 -1.924 21.519 -44.099
0.25262349999684375 0.05 0.094 1.17 -2.344 20.634 -44.565
0.26493341599416453 0.058 0.083 1.18 -2.786 19.527 -44.298
0.27721983299124986 0.061 0.093 1.169 -2.924 19.076 -44.176
0.2838951659941813 0.052 0.088 1.161 -3.344 19.038 -43.298
0.29619287500099745 0.056 0.087 1.168 -2.504 18.481 -42.344
0.30301000000326894 0.049 0.099 1.159 -1.985 18.344 -42.168
0.3152152499969816 0.06 0.082 1.164 -1.511 19.191 -43.366
0.3272654159954982 0.06 0.095 1.157 -1.618 20.076 -45.214
0.3343092080031056 0.068 0.093 1.161 -1.504 20.656 -47.008
0.34618308299104683 0.072 0.093 1.164 -1.664 21.58 -47.107
0.35335758299333975 0.075 0.104 1.17 -1.443 21.115 -46.031
0.3652788750041509 0.073 0.111 1.172 -1.71 19.725 -43.924
0.3722117909928784 0.071 0.109 1.167 -1.992 18.45 -41.756
0.38432737499533687 0.074 0.106 1.179 -1.908 18.092 -41.298
0.3964856249949662 0.08 0.105 1.165 -1.962 18.702 -41.977
0.40322645800188184 0.087 0.107 1.146 -2.931 21.473 -43.359
0.41552349999255966 0.084 0.109 1.157 -3.504 24.29 -44.863
0.42243695800425485 0.063 0.105 1.173 -3.466 23.939 -45.618
0.43469125000410713 0.057 0.111 1.181 -2.802 21.718 -45.0
0.44676895800512284 0.065 0.103 1.177 -2.145 19.832 -43.29
0.45363295800052583 0.063 0.105 1.177 -1.794 17.924 -42.275
0.465984833004768 0.073 0.101 1.166 -1.763 17.16 -40.244
0.47279195800365414 0.075 0.092 1.16 -2.282 17.198 -40.282
0.48485779100155924 0.068 0.094 1.16 -2.573 18.473 -40.435
0.4967614999914076 0.07 0.095 1.172 -2.313 19.527 -41.718
0.5040210409933934 0.065 0.092 1.156 -3.015 20.481 -43.374
0.5159255409962498 0.078 0.088 1.156 -3.603 22.214 -44.527
0.5231926249980461 0.072 0.091 1.159 -3.237 23.435 -45.115
0.5349184999940917 0.056 0.089 1.167 -2.977 22.695 -44.802
0.5470614999940153 0.048 0.09 1.172 -2.435 21.191 -43.076
0.5541284159990028 0.054 0.093 1.16 -1.542 19.924 -42.023
0.5662199159996817 0.058 0.102 1.171 -1.321 19.748 -41.84
0.5730544999969425 0.046 0.108 1.189 -2.099 18.038 -41.389
0.5851882499991916 0.051 0.107 1.179 -2.427 17.153 -41.13
0.5973647499922663 0.074 0.102 1.17 -3.634 18.344 -41.832
0.6041690409911098 0.076 0.093 1.145 -4.198 21.275 -43.16
0.616308458003914 0.059 0.089 1.152 -4.084 22.626 -43.664
0.6232923329953337 0.053 0.084 1.166 -2.878 22.702 -43.198
0.6353739579935791 0.053 0.09 1.17 -1.786 21.573 -43.626
0.6472969159949571 0.05 0.106 1.167 -1.374 20.405 -43.366
0.654511624990846 0.041 0.098 1.17 -0.947 18.962 -42.534
0.666450958000496 0.055 0.106 1.18 -0.893 17.321 -42.481
0.6734874999965541 0.07 0.102 1.169 -1.824 17.733 -42.947
0.6853627910022624 0.069 0.105 1.169 -2.771 18.916 -43.511
0.6925601249968167 0.079 0.102 1.169 -3.412 19.832 -43.374
0.7044333329977235 0.079 0.099 1.149 -3.71 21.595 -44.023
0.7166292500041891 0.059 0.089 1.167 -3.74 21.939 -43.908
0.7235257080028532 0.052 0.096 1.177 -3.115 20.969 -43.824
0.7356331659975694 0.059 0.092 1.176 -2.969 20.137 -43.802
0.7425599160051206 0.071 0.101 1.16 -2.771 20.092 -43.519
0.7547709999926155 0.054 0.103 1.16 -2.802 20.458 -43.313
0.7667881660017883 0.053 0.097 1.159 -2.649 20.267 -42.87
0.773733624999295 0.057 0.097 1.168 -2.519 18.603 -41.916
0.786098041004152 0.057 0.098 1.173 -2.397 18.16 -41.557
0.7927187909954228 0.068 0.09 1.159 -2.466 18.985 -42.191
0.8049157909990754 0.064 0.087 1.152 -3.076 20.427 -42.718
0.8168500409956323 0.07 0.089 1.157 -2.847 21.656 -44.229
0.8240175829996588 0.058 0.09 1.151 -2.45 22.847 -45.305
0.8376328750018729 0.066 0.096 1.17 -1.733 22.405 -45.366
0.8430404579994502 0.055 0.1 1.162 -1.344 21.779 -44.397
0.8548456249991432 0.057 0.104 1.175 -2.107 20.313 -43.427
0.8672945409925887 0.061 0.094 1.17 -2.237 20.176 -42.733
0.8739967080036877 0.059 0.105 1.167 -3.076 19.893 -42.885
0.8860655409953324 0.059 0.104 1.173 -3.679 19.13 -41.969
0.8930209999962244 0.061 0.091 1.159 -3.504 19.878 -42.031
0.905010125003173 0.052 0.092 1.155 -3.687 20.443 -41.817
0.9172961250005756 0.041 0.078 1.163 -3.153 20.153 -42.053
0.9240943329932634 0.047 0.086 1.168 -2.702 19.038 -43.092
0.936366583002382 0.051 0.08 1.145 -2.275 19.366 -44.305
0.9432893749908544 0.074 0.081 1.148 -1.939 21.214 -46.038
0.9554769579990534 0.077 0.091 1.155 -1.511 22.763 -47.473
0.9673067080002511 0.082 0.098 1.157 -0.542 24.145 -47.847
0.9744214999955148 0.078 0.124 1.173 0.443 24.038 -46.519
0.9865807500027586 0.072 0.143 1.181 0.634 22.206 -43.977
0.9939185410039499 0.068 0.151 1.181 0.588 19.809 -41.939
1.0059587080031633 0.063 0.146 1.182 0.527 18.847 -40.924
1.0128036660025828 0.073 0.144 1.172 0.328 18.634 -40.71
1.0249058329936815 0.073 0.128 1.174 -0.282 19.779 -41.29
1.0370312500017462 0.065 0.116 1.167 -2.092 20.878 -42.336
1.0441957080038264 0.054 0.096 1.174 -3.244 22.252 -43.153
1.0560972499952186 0.059 0.092 1.18 -4.092 22.481 -43.328
1.0627220000023954 0.054 0.081 1.167 -4.618 22.0 -42.191
1.0750439160037786 0.051 0.068 1.169 -4.405 21.122 -40.771
1.0870197079930222 0.039 0.064 1.161 -3.74 19.137 -40.115
1.0941942499921424 0.046 0.055 1.143 -2.481 19.153 -40.092
1.1061583749979036 0.042 0.063 1.14 -1.0 20.221 -41.122
1.1130911660002312 0.048 0.054 1.143 0.153 20.611 -42.809
1.1253772909985855 0.05 0.067 1.142 0.901 21.908 -44.626
1.132316000002902 0.057 0.084 1.144 1.046 22.985 -45.321
1.1444431249983609 0.06 0.089 1.16 0.893 23.504 -45.115
1.1568364999984624 0.049 0.097 1.162 0.519 22.55 -43.878
1.1634908749983879 0.052 0.1 1.173 -0.176 21.611 -42.298
1.175702790991636 0.046 0.094 1.18 -0.611 19.405 -41.847
1.18238141600159 0.054 0.091 1.167 -0.87 18.321 -41.435
1.1946597499918425 0.059 0.089 1.161 -0.779 19.0 -41.351
1.2067809159925673 0.045 0.092 1.168 -0.695 18.985 -40.863
1.2136830410017865 0.041 0.092 1.172 0.122 18.328 -40.588
1.2261051249952288 0.055 0.081 1.171 0.992 19.58 -43.168
1.232990916003473 0.055 0.101 1.167 1.137 20.794 -45.954
1.2452289579960052 0.06 0.112 1.18 0.191 22.092 -48.076
1.2572912500036182 0.069 0.128 1.187 -1.489 22.802 -48.076
1.2644739579991437 0.065 0.135 1.177 -3.137 21.985 -46.023
1.2764319999987492 0.055 0.129 1.19 -3.939 19.603 -43.336
1.2834156250028173 0.053 0.137 1.194 -4.313 16.641 -40.069
1.2953231659921585 0.058 0.114 1.181 -4.374 15.511 -38.26
1.302466249995632 0.065 0.103 1.163 -4.473 16.397 -39.191
1.3143689580028877 0.054 0.087 1.151 -4.824 18.061 -41.13
1.3266047910001362 0.047 0.092 1.157 -4.985 19.786 -42.992
1.3333622909995029 0.053 0.087 1.153 -3.603 20.519 -44.183
1.3456061250035418 0.062 0.091 1.153 -2.962 21.427 -44.702
1.3524621249962365 0.052 0.096 1.16 -2.176 21.55 -44.443
1.3646825409960002 0.058 0.104 1.163 -1.435 21.435 -43.366
1.3769095000025118 0.049 0.105 1.173 -1.863 20.099 -42.008
1.383778916002484 0.046 0.108 1.174 -2.382 18.779 -41.626
1.3959890830010409 0.053 0.107 1.166 -2.565 18.412 -41.511
1.4027947499998845 0.049 0.101 1.15 -2.542 19.046 -41.641
1.414874583002529 0.05 0.1 1.157 -2.443 20.145 -42.305
1.4269711249944521 0.048 0.095 1.151 -2.191 20.779 -43.153
1.4339502910006559 0.037 0.091 1.154 -2.053 20.832 -44.244
1.4458280830003787 0.044 0.095 1.158 -1.725 21.435 -44.557
1.4530561249994207 0.042 0.106 1.165 -2.26 20.427 -44.817
1.4649126659933245 0.04 0.106 1.155 -2.214 19.74 -43.863
1.4770361660048366 0.044 0.108 1.149 -1.893 18.786 -43.527
1.4839115829963703 0.059 0.114 1.144 -1.45 18.107 -43.542
1.496023250001599 0.056 0.11 1.173 -0.977 17.008 -42.504
1.5029966659931233 0.051 0.114 1.157 -1.374 16.702 -41.893
1.5151775830017868 0.067 0.104 1.146 -1.718 17.618 -42.511
1.527344499991159 0.059 0.103 1.152 -1.969 18.756 -43.687
1.5342306249949615 0.061 0.093 1.157 -2.031 19.252 -44.595
1.5462268330011284 0.062 0.098 1.167 -2.221 19.695 -44.359
1.5532065409934148 0.059 0.087 1.169 -2.275 19.87 -43.595
1.5655415410001297 0.049 0.081 1.167 -2.023 19.076 -43.275
1.5772885000042152 0.055 0.083 1.17 -1.565 18.588 -43.55
1.5844228329951875 0.056 0.079 1.16 -0.855 18.954 -44.0
1.5964503750001313 0.058 0.089 1.163 -0.656 19.092 -44.328
1.603560916002607 0.071 0.089 1.156 0.282 19.58 -44.885
1.6156125410052482 0.072 0.102 1.157 0.779 20.374 -45.42
1.6227832080039661 0.065 0.111 1.17 0.969 20.496 -45.038
1.6347891250043176 0.066 0.117 1.183 0.87 19.557 -44.244
1.6469780409970554 0.083 0.121 1.164 0.534 18.672 -43.084
1.6536592500051484 0.094 0.12 1.166 0.13 19.382 -42.267
1.6659824160014978 0.088 0.115 1.167 -0.489 21.092 -42.573
1.6727287499961676 0.082 0.12 1.183 -2.122 21.863 -42.412
1.684935208002571 0.061 0.113 1.178 -2.725 21.275 -42.107
1.6972169579967158 0.059 0.108 1.16 -2.824 19.496 -40.595
1.7039024160039844 0.062 0.102 1.164 -1.45 19.366 -39.947
1.7162212080002064 0.054 0.098 1.158 0.076 20.359 -40.901
1.722963374995743 0.045 0.101 1.162 -0.519 21.008 -41.786
1.7353436660050647 0.041 0.093 1.177 -1.076 21.015 -42.511
1.7408624160016188 0.042 0.095 1.172 -1.405 19.87 -42.504
1.7543577500036918 0.054 0.098 1.174 -0.489 19.489 -42.55
1.7665171249973355 0.054 0.105 1.159 -0.786 21.076 -42.519
1.7732376249914523 0.048 0.105 1.173 -1.359 21.908 -42.366
1.7855810000037309 0.031 0.103 1.185 -1.458 20.282 -42.489
1.7924352910049492 0.033 0.114 1.187 -1.382 17.901 -42.565
1.8047088329913095 0.057 0.121 1.171 -1.344 17.794 -43.008
1.816568082998856 0.059 0.123 1.146 -1.489 19.214 -43.26
1.8236318330018548 0.058 0.122 1.168 -1.893 20.344 -42.954
1.8356439579947619 0.052 0.117 1.168 -2.359 21.031 -42.573
1.8424113329965621 0.044 0.12 1.177 -2.748 19.634 -42.458
1.854484333001892 0.04 0.109 1.167 -2.756 18.565 -41.664
1.8670227080001496 0.039 0.102 1.157 -1.84 18.183 -41.427
1.8736635410023155 0.034 0.1 1.16 -1.565 18.45 -41.076
1.8858951250003884 0.03 0.089 1.156 -0.511 18.038 -41.603
1.8928330409980845 0.041 0.083 1.156 -0.496 17.939 -42.267
1.9048602499970002 0.046 0.086 1.163 -0.718 18.527 -43.053
1.917166333005298 0.049 0.086 1.148 -0.641 19.061 -43.656
1.9240048329957062 0.052 0.09 1.157 -0.183 19.878 -45.13
1.9360705409926595 0.052 0.099 1.163 -0.198 20.863 -46.282
1.943075624993071 0.067 0.109 1.157 0.13 21.489 -46.679
1.9551797500025714 0.062 0.113 1.168 0.771 22.252 -46.885
1.9672385409940034 0.058 0.125 1.171 -0.145 22.008 -46.679
1.9741510000021663 0.069 0.123 1.169 -1.282 21.863 -46.824
1.9863378330046544 0.065 0.126 1.166 -1.977 22.008 -46.809
1.9933554579911288 0.064 0.129 1.173 -2.511 20.84 -46.008
2.0053728749917354 0.065 0.124 1.177 -2.229 19.405 -44.191
2.010809874991537 0.065 0.134 1.169 -1.244 17.901 -42.748
2.0245641660003457 0.06 0.13 1.17 -1.168 17.168 -41.481
2.03680987500411 0.07 0.125 1.176 -1.191 17.573 -41.26
2.043475040991325 0.07 0.117 1.164 -2.099 19.145 -42.817
2.05581770799472 0.075 0.113 1.157 -2.718 20.618 -44.435
2.0626137499930337 0.074 0.118 1.163 -3.305 21.611 -44.939
2.074760207993677 0.067 0.114 1.173 -3.71 20.87 -44.282
2.0866617080027936 0.058 0.115 1.16 -3.931 20.435 -43.55
2.093807041004766 0.066 0.115 1.17 -3.878 20.382 -43.321
2.1055994579946855 0.061 0.107 1.174 -3.855 19.672 -42.611
2.1128670829930343 0.057 0.105 1.169 -3.42 18.992 -41.382
2.124659207998775 0.057 0.098 1.158 -2.42 18.962 -40.214
2.1367644580022898 0.055 0.093 1.158 -1.053 19.519 -40.664
2.143758332997095 0.047 0.094 1.166 -0.153 18.55 -41.237
2.1559170830005314 0.049 0.103 1.16 -0.359 18.344 -42.344
2.162750415998744 0.061 0.111 1.162 -1.122 18.718 -43.496
2.174856915997225 0.068 0.123 1.16 -2.443 20.115 -44.053
2.1869409999926575 0.059 0.123 1.155 -4.008 22.099 -44.183
2.1941626250045374 0.056 0.112 1.168 -4.412 22.924 -43.74
2.2061220409959788 0.043 0.109 1.166 -3.885 21.817 -43.595
2.2127200410031946 0.039 0.1 1.158 -2.641 19.863 -43.13
2.22511995799141 0.035 0.102 1.168 -1.618 17.351 -42.702
2.2370575410022866 0.056 0.112 1.159 -0.695 16.244 -42.87
2.244203207999817 0.068 0.114 1.146 -0.382 17.298 -42.527
2.256134082999779 0.06 0.109 1.153 -0.366 18.321 -42.198
2.2632295829971554 0.053 0.111 1.167 -1.176 18.176 -41.954
2.2752124999969965 0.063 0.106 1.16 -2.122 18.908 -43.344
2.2873192080005538 0.074 0.107 1.165 -2.962 20.16 -44.382
2.294254082997213 0.068 0.112 1.159 -3.481 21.168 -44.74
2.3065584580035647 0.066 0.115 1.164 -3.931 20.702 -43.725
2.313225958001567 0.062 0.112 1.172 -3.58 19.718 -41.855
2.3255223750020377 0.048 0.115 1.161 -2.84 17.282 -40.061
2.33112745800463 0.048 0.105 1.165 -1.588 15.756 -39.336
2.3445047909917776 0.061 0.092 1.147 -0.42 16.015 -39.916
2.356693833004101 0.06 0.094 1.14 -0.573 17.344 -41.916
2.363107625002158 0.067 0.091 1.151 -0.634 20.13 -43.321
2.3754484999954 0.066 0.099 1.154 -1.466 22.061 -44.313
2.3824901250045514 0.051 0.105 1.166 -1.702 21.908 -44.458
2.3945394579932326 0.049 0.111 1.17 -1.847 20.817 -43.985
2.4066293749929173 0.05 0.112 1.174 -1.466 19.748 -43.458
2.4138696659938432 0.061 0.117 1.172 -1.267 18.985 -41.893
2.4257217080012197 0.06 0.106 1.169 -0.985 18.87 -41.374
2.4329096659930656 0.048 0.109 1.15 -0.824 19.496 -41.939
2.44464729099127 0.047 0.112 1.157 -0.863 19.695 -43.092
2.4567515829985496 0.063 0.106 1.151 -0.473 20.573 -44.748
2.4636931659915717 0.067 0.108 1.161 -0.298 21.908 -45.122
2.475972832995467 0.064 0.121 1.167 -0.115 22.763 -45.046
2.4827754580037436 0.06 0.112 1.169 -0.069 21.924 -44.015
2.4949406660016393 0.042 0.124 1.178 -0.504 19.344 -43.374
2.5070580000028713 0.047 0.118 1.171 -0.878 17.183 -42.313
2.514000415991177 0.066 0.121 1.158 -1.13 16.565 -41.832
2.526076333000674 0.069 0.121 1.148 -0.809 16.71 -41.069
2.5329334160051076 0.067 0.121 1.163 0.267 16.763 -40.198
