Time AX AY AZ GX GY GZ
0.012949374999152496 0.137 0.113 1.163 -2.557 19.603 -40.573
0.024763583001913503 0.12 0.115 1.173 -3.649 20.267 -41.534
0.031947541996487416 0.119 0.11 1.157 -4.466 20.794 -42.817
0.044120499995187856 0.12 0.104 1.167 -5.198 22.267 -44.26
0.05125716699694749 0.116 0.109 1.168 -5.359 22.481 -44.359
0.0629947080014972 0.115 0.096 1.161 -3.87 22.061 -44.092
0.07518245799292345 0.109 0.101 1.161 -2.817 21.107 -43.42
0.0821935419953661 0.119 0.104 1.168 -2.183 19.802 -42.542
0.0941521670029033 0.123 0.118 1.164 -1.901 19.13 -42.595
0.1010396670026239 0.128 0.108 1.174 -1.802 18.672 -42.336
0.11318291700445116 0.132 0.117 1.162 -1.992 19.092 -42.351
0.12545904199942015 0.145 0.113 1.157 -3.107 20.779 -43.16
0.13223745800496545 0.136 0.119 1.133 -2.977 23.015 -44.26
0.14437624999845866 0.134 0.12 1.146 -2.954 23.481 -44.023
0.15132041700417176 0.116 0.112 1.169 -2.229 22.809 -43.206
0.16345912500401028 0.115 0.118 1.154 -2.176 21.084 -42.412
0.17530775000341237 0.113 0.112 1.175 -2.397 18.847 -41.695
0.18237512500490993 0.122 0.108 1.163 -1.664 17.954 -41.26
0.19447000000218395 0.119 0.109 1.151 -2.115 18.29 -41.206
0.20136429199192207 0.129 0.09 1.144 -2.878 20.092 -42.466
0.21340666699688882 0.127 0.104 1.146 -2.603 21.565 -43.466
0.2255735829967307 0.124 0.099 1.158 -2.29 22.603 -44.534
0.23268770800495986 0.099 0.105 1.166 -1.954 21.809 -44.527
0.2447214999992866 0.116 0.107 1.164 -1.832 20.328 -44.313
0.25151979200018104 0.128 0.112 1.157 -1.992 20.733 -44.55
0.26384754199534655 0.123 0.116 1.169 -2.061 21.191 -44.832
0.2694267079932615 0.116 0.125 1.169 -2.176 19.397 -44.519
0.28290750000451226 0.131 0.125 1.166 -2.55 18.542 -43.427
0.29493008299323265 0.135 0.121 1.176 -1.863 18.389 -42.618
0.3019907499983674 0.137 0.126 1.16 -2.168 18.931 -42.061
0.31395374999556225 0.141 0.115 1.146 -2.672 20.435 -42.71
0.32083495799452066 0.125 0.109 1.156 -2.931 21.573 -43.084
0.3329712919949088 0.123 0.108 1.163 -2.656 20.771 -43.16
0.3448527500004275 0.117 0.105 1.159 -1.771 20.0 -42.557
0.35195366699190345 0.123 0.106 1.155 -2.153 20.26 -42.702
0.3639928329939721 0.111 0.109 1.173 -2.366 19.679 -42.618
0.3708107080019545 0.126 0.115 1.151 -2.58 19.389 -42.626
0.3827779580024071 0.129 0.108 1.144 -2.931 20.069 -43.641
0.395014749999973 0.132 0.104 1.155 -3.099 21.588 -44.153
0.40183570800581947 0.13 0.114 1.158 -2.664 21.969 -44.45
0.41416304200538434 0.14 0.114 1.14 -2.122 21.695 -44.74
0.4211625829921104 0.135 0.124 1.156 -1.252 21.817 -44.771
0.43323758299811743 0.14 0.127 1.167 -0.771 21.16 -43.817
0.4454105000040727 0.132 0.126 1.182 -1.214 19.878 -42.58
0.4522533330018632 0.143 0.122 1.18 -1.168 19.031 -41.122
0.46441879200574476 0.151 0.124 1.167 -2.267 18.802 -40.038
0.47140862500236835 0.143 0.119 1.156 -2.756 18.466 -39.176
0.4836313749983674 0.136 0.114 1.159 -2.855 18.718 -38.672
0.4953208749939222 0.132 0.107 1.16 -2.916 19.916 -39.107
0.5024854579969542 0.111 0.123 1.169 -3.466 19.962 -40.145
0.5145643750001909 0.121 0.113 1.167 -3.786 20.305 -41.244
0.5215755419922061 0.11 0.106 1.17 -4.305 20.824 -42.176
0.5334885000047507 0.106 0.099 1.16 -4.985 19.565 -42.565
0.5455556670058286 0.111 0.102 1.15 -4.725 18.542 -42.061
0.5526643329940271 0.113 0.094 1.147 -3.992 18.412 -41.763
0.5647262499987846 0.097 0.091 1.147 -3.137 18.489 -41.237
0.5716401249956107 0.106 0.083 1.146 -3.115 18.588 -41.962
0.5836305419943528 0.104 0.084 1.148 -2.916 19.244 -42.878
0.5893962499976624 0.108 0.09 1.145 -2.634 19.71 -43.702
0.6028557499957969 0.106 0.093 1.139 -2.069 19.832 -44.053
0.6148562500020489 0.109 0.09 1.152 -1.069 20.008 -43.847
0.6218064999993658 0.104 0.1 1.151 -1.267 19.015 -43.534
0.6339943329949165 0.111 0.11 1.174 -1.374 17.779 -43.435
0.6407667500025127 0.118 0.119 1.163 -1.87 17.504 -43.458
0.653009874993586 0.123 0.117 1.162 -3.137 18.496 -44.053
0.6648807080055121 0.123 0.112 1.14 -3.817 19.725 -44.962
0.6719068749953294 0.125 0.113 1.144 -3.137 20.962 -45.321
0.6839941670041298 0.104 0.114 1.147 -1.557 20.13 -44.511
0.6908466669992777 0.103 0.106 1.145 -0.382 17.504 -42.725
0.7030729580001207 0.123 0.094 1.14 0.847 15.992 -41.389
0.7155992500047432 0.126 0.088 1.14 2.282 16.061 -41.168
0.7220214169938117 0.123 0.087 1.136 2.267 16.573 -42.298
0.7344500829931349 0.132 0.097 1.139 1.832 18.298 -44.099
0.7415565830015112 0.137 0.108 1.141 1.634 20.58 -46.115
0.7537323750002543 0.129 0.128 1.156 0.771 21.855 -46.87
0.7608086669933982 0.127 0.121 1.166 0.031 22.015 -46.771
0.7730489169916837 0.133 0.122 1.167 0.023 21.618 -46.321
0.7849299170047743 0.133 0.13 1.174 -0.191 20.718 -45.237
0.791693374994793 0.146 0.126 1.186 0.244 19.802 -44.664
0.8042140420002397 0.139 0.119 1.172 0.382 18.931 -43.252
0.8113737919920823 0.145 0.125 1.171 0.298 18.481 -42.779
0.8231395420007175 0.151 0.125 1.174 -0.092 19.252 -43.183
0.8353954579943093 0.142 0.12 1.161 -0.481 20.069 -43.191
0.8422235829930287 0.149 0.114 1.156 -1.176 20.855 -43.466
0.8543787919916213 0.163 0.113 1.146 -2.023 23.412 -45.008
0.8612893329991493 0.146 0.118 1.143 -2.061 24.954 -45.87
0.8734160419990076 0.135 0.118 1.164 -1.718 24.26 -45.481
0.8856828330026474 0.13 0.132 1.174 -0.985 22.641 -43.031
0.8926039579964709 0.13 0.124 1.19 0.092 20.45 -40.901
0.9047255000041332 0.116 0.127 1.188 -0.145 17.969 -38.985
0.911749916995177 0.125 0.121 1.163 -0.344 18.16 -39.176
0.9236518329998944 0.143 0.104 1.152 -1.153 20.466 -40.534
0.9294014170009177 0.133 0.114 1.164 -1.725 22.42 -42.366
0.9427292920008767 0.122 0.112 1.165 -2.015 24.053 -44.473
0.9550445829954697 0.12 0.119 1.182 -2.42 24.626 -45.55
0.9619737079920014 0.105 0.128 1.201 -2.305 22.328 -44.115
0.9738641669973731 0.103 0.141 1.212 -2.504 18.183 -42.29
0.9808545830019284 0.117 0.148 1.186 -2.466 16.031 -40.176
0.992936374997953 0.119 0.141 1.187 -1.771 15.0 -38.534
1.0050153750053141 0.109 0.143 1.187 -1.924 14.969 -38.26
1.0119242499931715 0.109 0.139 1.192 -2.779 15.145 -38.931
1.0239371249917895 0.114 0.138 1.185 -4.802 16.275 -40.046
1.031208707994665 0.119 0.131 1.184 -6.954 17.649 -41.855
1.0431777920020977 0.117 0.113 1.164 -8.656 18.565 -43.031
1.0551285419933265 0.114 0.103 1.15 -9.374 18.817 -44.145
1.0621491670026444 0.127 0.09 1.126 -8.641 20.29 -45.168
1.074284832997364 0.117 0.085 1.144 -6.924 19.672 -44.939
1.0811820829985663 0.113 0.088 1.15 -4.42 17.901 -43.58
1.0932961249927757 0.13 0.091 1.137 -2.664 17.374 -43.252
1.105350208003074 0.14 0.1 1.134 -2.649 17.458 -42.977
1.1124953329999698 0.145 0.108 1.135 -2.382 18.603 -43.099
1.1244609580026008 0.152 0.109 1.131 -2.13 20.328 -43.473
1.131286292002187 0.145 0.105 1.13 -2.45 22.389 -44.153
1.1434547499957262 0.143 0.105 1.13 -2.252 24.275 -45.008
1.1556102500035195 0.133 0.115 1.135 -2.26 25.107 -44.626
1.1626125420007156 0.123 0.128 1.161 -2.26 24.023 -43.893
1.1743431670038262 0.118 0.118 1.174 -1.55 21.641 -42.137
1.181614917004481 0.103 0.122 1.168 -1.023 18.779 -40.718
1.193532666991814 0.114 0.126 1.158 -1.305 17.305 -40.0
1.2056046249927022 0.124 0.113 1.15 -1.252 18.053 -40.908
1.2124905419914285 0.119 0.105 1.138 -0.527 19.939 -42.847
1.224706207998679 0.126 0.113 1.141 -1.321 22.076 -44.504
1.2314101249939995 0.124 0.11 1.152 -1.725 24.145 -45.527
1.2438900419947458 0.115 0.116 1.169 -2.023 24.244 -46.29
1.249421375003294 0.098 0.119 1.173 -1.733 21.855 -46.427
1.2627042079984676 0.117 0.125 1.16 -2.214 19.656 -45.595
1.2748449170030653 0.123 0.127 1.164 -2.618 18.298 -44.427
1.281687458002125 0.139 0.12 1.158 -2.634 17.267 -43.405
1.294025666997186 0.147 0.124 1.141 -2.687 18.267 -42.962
1.3005077919951873 0.143 0.108 1.137 -2.198 19.947 -43.542
1.3130257919983706 0.14 0.109 1.153 -1.42 21.26 -44.221
1.3249681669985875 0.136 0.107 1.164 -0.565 21.733 -44.824
1.3321653330058325 0.144 0.118 1.168 -0.389 21.313 -44.634
1.3439998749963706 0.158 0.122 1.146 -0.618 22.489 -43.977
1.3511399580020225 0.142 0.124 1.16 -0.641 23.649 -42.519
1.3628172919998178 0.118 0.133 1.192 -0.672 21.832 -40.962
1.3751916250039358 0.112 0.126 1.198 -1.641 19.458 -40.008
1.3820192919956753 0.129 0.116 1.173 -2.603 18.863 -40.832
1.3941851669951575 0.133 0.121 1.151 -3.122 20.786 -41.504
1.4011413330008509 0.113 0.111 1.168 -3.176 22.084 -42.053
1.4131951669987757 0.088 0.115 1.198 -3.145 20.405 -42.313
1.425381249995553 0.107 0.118 1.169 -3.221 18.725 -42.664
1.4322392500034766 0.133 0.114 1.155 -4.389 20.573 -43.977
1.444373624995933 0.122 0.115 1.169 -4.779 22.13 -45.206
1.451329874995281 0.111 0.115 1.171 -4.908 21.519 -45.244
1.463412041994161 0.112 0.117 1.162 -5.137 20.725 -44.977
1.4753765420027776 0.116 0.121 1.153 -4.473 20.992 -43.855
1.4823872080014553 0.123 0.116 1.156 -3.695 20.42 -42.374
1.4944515419920208 0.094 0.115 1.175 -2.672 17.893 -40.977
1.5016564169927733 0.094 0.105 1.18 -3.42 14.863 -40.412
1.5136546249996172 0.124 0.093 1.156 -3.809 15.099 -41.359
1.525736916999449 0.133 0.088 1.143 -4.344 17.344 -43.275
1.532663624995621 0.131 0.095 1.148 -5.42 19.359 -44.42
1.5446561249991646 0.126 0.096 1.155 -6.13 20.626 -45.763
1.5517033749929396 0.117 0.105 1.161 -6.321 20.733 -45.573
1.5636861249950016 0.115 0.121 1.178 -5.748 19.519 -45.061
1.5695173749991227 0.119 0.126 1.167 -5.435 18.672 -43.832
1.5828192500048317 0.132 0.12 1.159 -5.229 19.076 -42.908
1.5950187080015894 0.124 0.117 1.156 -4.55 19.527 -42.817
1.6019086669984972 0.132 0.104 1.15 -4.13 20.191 -43.076
1.6139221670018742 0.128 0.099 1.13 -3.687 20.985 -43.435
1.6204592499998398 0.12 0.089 1.143 -3.26 21.015 -43.466
1.6327041670010658 0.109 0.096 1.152 -2.511 19.893 -43.099
1.6448623750038678 0.112 0.101 1.148 -2.481 18.817 -42.55
1.6520488329988439 0.123 0.091 1.148 -2.695 18.573 -42.023
1.6639419169950997 0.133 0.093 1.138 -1.779 20.0 -42.473
1.671117541991407 0.116 0.088 1.145 -0.992 21.74 -43.45
1.6831181250017835 0.106 0.091 1.156 -0.389 22.695 -44.985
1.6950690420053434 0.117 0.104 1.156 -0.519 23.137 -46.58
1.7019283749978058 0.119 0.111 1.167 -0.58 23.26 -47.26
1.714458000002196 0.125 0.124 1.169 -0.893 22.168 -46.176
1.7212898330035387 0.122 0.128 1.18 -1.664 20.031 -44.466
1.7332392079988495 0.125 0.129 1.175 -2.26 17.985 -42.435
1.7454120000038529 0.129 0.12 1.169 -2.16 17.313 -41.038
1.7521159169991734 0.135 0.114 1.157 -2.405 17.855 -41.244
1.7644690000015544 0.139 0.103 1.148 -2.504 20.038 -42.55
1.7710972920031054 0.14 0.103 1.138 -2.412 22.595 -43.794
1.7837668749998556 0.13 0.101 1.147 -2.153 23.817 -45.061
1.7956276670010993 0.123 0.106 1.15 -1.725 23.985 -44.824
1.802665082999738 0.125 0.111 1.154 -0.687 23.092 -43.763
1.8143886250036303 0.113 0.114 1.165 -0.435 21.267 -42.557
1.8216847500007134 0.123 0.107 1.163 -0.45 20.107 -41.473
1.8334340419969521 0.119 0.117 1.177 -1.092 19.244 -40.511
1.845606457995018 0.113 0.113 1.17 -2.237 18.122 -40.466
1.8525383329979377 0.12 0.104 1.16 -3.145 18.214 -40.893
1.8646549169934588 0.117 0.11 1.15 -3.626 20.176 -42.534
1.871604166997713 0.128 0.098 1.15 -3.359 22.229 -43.939
1.883812999993097 0.111 0.096 1.142 -2.13 23.588 -44.847
1.8894504999916535 0.111 0.098 1.156 -0.779 24.13 -45.519
1.9026983749936335 0.099 0.112 1.173 0.252 22.344 -44.107
1.9150330830016173 0.099 0.117 1.176 -0.008 19.893 -42.939
1.9218107079941547 0.115 0.111 1.18 -0.359 18.137 -42.504
1.9338963329937542 0.113 0.121 1.179 -1.878 17.29 -41.863
1.9408367500000168 0.128 0.117 1.155 -2.962 18.328 -42.244
1.953013332997216 0.126 0.117 1.149 -3.298 21.0 -42.817
1.965202583000064 0.114 0.11 1.158 -3.863 22.069 -43.45
1.9720174579997547 0.103 0.107 1.173 -3.557 22.275 -44.496
1.9842179999977816 0.104 0.108 1.156 -3.122 22.252 -45.435
1.991095833000145 0.121 0.103 1.163 -2.267 21.679 -45.763
2.003305582999019 0.125 0.111 1.166 -2.008 20.802 -45.076
2.0150642920052633 0.114 0.115 1.17 -1.366 19.336 -43.168
2.0221372499945574 0.107 0.118 1.174 -1.511 17.313 -41.771
2.034080957993865 0.124 0.117 1.158 -1.481 16.45 -41.122
2.04180154200003 0.136 0.115 1.15 -2.13 17.374 -41.748
2.053314542004955 0.142 0.107 1.141 -1.45 20.542 -43.427
2.0654930419987068 0.138 0.111 1.155 -2.015 23.107 -44.855
2.0721653329965193 0.123 0.114 1.17 -1.969 23.985 -45.076
2.084471041991492 0.113 0.112 1.164 -2.252 22.802 -43.405
2.0909749169950373 0.121 0.116 1.19 -1.885 20.809 -42.664
2.10332812499837 0.115 0.123 1.177 -2.359 20.069 -42.107
2.1157711669948185 0.116 0.112 1.171 -3.115 19.771 -41.878
2.122741999992286 0.115 0.103 1.159 -2.748 20.031 -40.924
2.1347458329983056 0.103 0.1 1.171 -3.344 19.275 -41.191
2.141558207993512 0.109 0.089 1.155 -2.557 20.046 -42.885
2.1538009170035366 0.119 0.091 1.143 -2.71 21.42 -44.275
2.1655364579928573 0.112 0.088 1.145 -2.0 22.733 -44.534
2.1727616249991115 0.101 0.099 1.163 -1.198 21.229 -43.588
2.184682332997909 0.093 0.098 1.178 -0.061 19.916 -42.511
2.19185520800238 0.088 0.111 1.18 -0.282 18.679 -41.962
2.203756417002296 0.087 0.107 1.186 -1.672 18.183 -42.13
2.210863792002783 0.096 0.11 1.176 -2.298 19.634 -43.244
2.222723667000537 0.095 0.103 1.171 -4.374 21.634 -45.603
2.23486050000065 0.098 0.101 1.168 -5.496 22.786 -47.695
2.2418197079969104 0.096 0.1 1.171 -5.756 22.58 -48.374
2.2538980419922154 0.099 0.105 1.165 -4.641 20.947 -47.718
2.2607810829940718 0.106 0.104 1.152 -2.359 19.542 -46.244
2.273036333004711 0.123 0.104 1.155 -0.595 17.977 -44.313
2.285166207992006 0.123 0.112 1.168 1.031 16.053 -42.733
2.2922010000038426 0.137 0.118 1.145 1.473 15.008 -41.221
2.3039797919918783 0.161 0.126 1.139 -0.221 17.168 -41.977
2.311096582998289 0.159 0.118 1.156 -1.481 20.45 -42.687
2.3234698330052197 0.141 0.121 1.156 -2.924 22.069 -43.702
2.335375666996697 0.131 0.117 1.151 -4.26 23.702 -44.344
2.3423371669923654 0.125 0.12 1.154 -4.374 24.137 -44.84
2.3545455419953214 0.103 0.118 1.166 -2.947 22.473 -43.595
2.361383833005675 0.087 0.128 1.172 -1.42 19.763 -41.42
2.3733932500035735 0.097 0.117 1.171 -0.786 17.641 -40.504
2.385610707991873 0.106 0.112 1.169 -0.359 16.832 -40.725
2.39248204199248 0.117 0.104 1.153 -0.527 17.298 -41.176
2.40477995800029 0.136 0.102 1.148 -1.389 20.603 -42.687
2.411303457993199 0.12 0.097 1.143 -2.695 24.366 -44.924
2.4237617920007324 0.105 0.103 1.156 -4.176 25.458 -47.061
2.435640333002084 0.1 0.11 1.16 -4.389 24.504 -47.023
2.4426657919975696 0.102 0.1 1.156 -3.504 22.916 -45.244
2.4545862920058426 0.085 0.104 1.167 -1.282 20.328 -43.084
2.4617571249982575 0.092 0.107 1.156 0.252 17.412 -41.45
2.473843083003885 0.11 0.104 1.16 0.809 15.916 -40.718
2.481108541993308 0.118 0.107 1.161 0.351 16.267 -41.763
2.4929653750004945 0.132 0.104 1.152 -0.649 18.809 -43.252
2.5050489580025896 0.129 0.115 1.142 -2.847 22.328 -45.191
2.512078375002602 0.12 0.107 1.153 -4.115 24.87 -46.641
2.5240752499958035 0.102 0.113 1.177 -4.0 24.55 -46.023
