Time AX AY AZ GX GY GZ
0.012902749993372709 0.12 0.103 1.158 -4.511 17.626 -40.985
0.01955012499820441 0.115 0.102 1.142 -4.122 19.244 -41.908
0.03170891699846834 0.104 0.112 1.157 -3.695 19.344 -42.481
0.04385945799003821 0.108 0.125 1.154 -4.107 20.344 -43.053
0.050947291994816624 0.119 0.129 1.171 -4.45 21.855 -43.618
0.06276070799503941 0.099 0.134 1.177 -4.603 21.336 -43.359
0.0696972079895204 0.111 0.127 1.184 -5.099 20.573 -43.519
0.08184549999714363 0.108 0.115 1.163 -3.885 19.847 -42.924
0.09416741698805708 0.113 0.113 1.159 -2.168 18.74 -42.58
0.10091116699913982 0.125 0.123 1.14 -2.115 19.481 -42.496
0.1130091669911053 0.133 0.133 1.154 -2.29 22.031 -42.74
0.12004391699156258 0.105 0.138 1.145 -3.13 23.504 -42.298
0.13225075000082143 0.112 0.137 1.149 -3.824 24.527 -42.603
0.144314207995194 0.094 0.132 1.159 -3.496 24.626 -43.137
0.1512191669899039 0.085 0.132 1.157 -2.786 24.45 -42.481
0.16330775000096764 0.083 0.132 1.149 -2.313 23.763 -42.947
0.17025545799697284 0.069 0.137 1.151 -1.046 23.0 -43.618
0.18237774999579415 0.068 0.151 1.157 -0.687 21.443 -44.389
0.19434670799819287 0.094 0.163 1.14 -0.412 21.641 -45.084
0.20130829198751599 0.082 0.183 1.142 -0.954 22.588 -45.397
0.2133409579982981 0.074 0.185 1.168 -2.656 22.458 -44.84
0.22060170798795298 0.079 0.184 1.175 -4.603 21.351 -44.198
0.2324285419890657 0.076 0.174 1.189 -6.038 20.527 -44.382
0.2446318329893984 0.06 0.166 1.195 -7.389 18.794 -44.29
0.25143445799767505 0.072 0.149 1.19 -8.099 16.855 -44.908
0.2635231249878416 0.061 0.134 1.187 -7.626 15.702 -45.748
0.2703917499893578 0.055 0.124 1.185 -6.382 13.519 -46.214
0.2827094579988625 0.087 0.121 1.165 -5.092 14.122 -47.481
0.28841395799827296 0.107 0.123 1.163 -4.55 16.115 -49.389
0.3017441669944674 0.112 0.123 1.158 -4.763 18.908 -50.176
0.3137914999970235 0.115 0.118 1.153 -5.214 20.992 -51.084
0.3207832499901997 0.111 0.127 1.16 -6.13 22.588 -52.252
0.33291554199240636 0.113 0.127 1.161 -6.542 23.237 -53.328
0.3398070419934811 0.099 0.119 1.161 -6.809 22.84 -53.053
0.3519225829950301 0.096 0.114 1.179 -6.0 20.26 -51.847
0.363785707988427 0.104 0.103 1.18 -4.771 17.26 -49.985
0.3709936669911258 0.117 0.093 1.159 -3.817 15.023 -48.015
0.3828502499964088 0.125 0.084 1.138 -2.878 15.733 -47.107
0.39001449999341276 0.141 0.08 1.141 -3.023 18.664 -47.153
0.40189408299920615 0.151 0.06 1.134 -2.038 23.924 -48.618
0.41402608298812993 0.126 0.062 1.141 -1.061 27.267 -50.267
0.4211767079978017 0.138 0.067 1.14 0.878 28.962 -50.809
0.43335729200043716 0.149 0.076 1.15 3.855 29.809 -49.687
0.44046833299216814 0.113 0.089 1.171 5.87 28.427 -47.099
0.4522789579932578 0.075 0.092 1.201 5.954 24.641 -44.107
0.46446350000042 0.083 0.112 1.208 3.878 19.511 -42.672
0.4716635829972802 0.075 0.122 1.225 0.573 12.038 -40.939
0.48385770799359307 0.092 0.115 1.23 -2.504 5.496 -38.565
0.49098404200049117 0.122 0.104 1.195 -4.954 1.954 -36.901
0.5030802919936832 0.157 0.085 1.15 -7.214 4.115 -36.863
0.5097312919970136 0.168 0.064 1.134 -7.176 9.221 -38.198
0.5220346249989234 0.156 0.054 1.129 -6.084 15.489 -40.542
0.5344602080003824 0.135 0.039 1.128 -5.16 21.519 -43.42
0.5412178749975283 0.129 0.031 1.16 -4.305 25.985 -47.954
0.5534260829881532 0.102 0.051 1.165 -2.695 27.695 -49.901
0.5600329579901882 0.094 0.069 1.178 -1.687 26.137 -49.29
0.5722144169994863 0.092 0.084 1.185 -0.366 22.954 -46.74
0.5844193329976406 0.096 0.083 1.179 0.145 20.153 -44.076
0.5910540420009056 0.096 0.08 1.173 1.489 19.702 -42.885
0.603508125001099 0.086 0.089 1.171 0.321 18.466 -42.626
0.6104600419930648 0.104 0.086 1.163 -2.206 18.511 -43.481
0.6223058329924243 0.098 0.1 1.163 -4.275 19.756 -43.802
0.6294102079991717 0.081 0.089 1.173 -5.748 19.718 -43.076
0.641519500000868 0.063 0.08 1.174 -5.374 17.58 -40.832
0.6537540419958532 0.078 0.068 1.161 -3.74 15.641 -38.885
0.6604477499931818 0.067 0.065 1.158 -0.985 14.695 -36.511
0.6726274579996243 0.064 0.056 1.142 0.55 14.389 -34.458
0.679746082998463 0.063 0.034 1.151 3.855 14.802 -33.84
0.6918898750009248 0.046 0.046 1.155 5.458 14.069 -34.29
0.7042180829885183 0.085 0.049 1.133 4.771 13.389 -36.336
0.7113449169992236 0.101 0.06 1.124 1.656 16.313 -39.122
0.7234592499880819 0.108 0.069 1.134 0.679 18.046 -40.725
0.7302029999991646 0.111 0.077 1.138 0.061 19.137 -40.099
0.7425580829876708 0.099 0.064 1.172 1.351 18.267 -39.557
0.7498407499952009 0.077 0.074 1.196 3.038 13.427 -39.176
0.7618822079966776 0.106 0.077 1.168 2.015 11.466 -40.519
0.7740891249995911 0.137 0.07 1.14 1.702 13.328 -43.519
0.7813952500000596 0.144 0.075 1.146 2.344 16.595 -44.534
0.7932277499930933 0.136 0.09 1.145 3.046 18.939 -44.687
0.8000064999941969 0.132 0.096 1.145 1.931 19.977 -45.053
0.8124709580006311 0.137 0.085 1.146 1.55 22.176 -46.969
0.8245088330004364 0.126 0.085 1.151 2.542 23.687 -48.641
0.831754250000813 0.119 0.094 1.149 2.359 24.198 -49.099
0.8438053329882678 0.125 0.087 1.15 2.321 23.473 -49.092
0.8509357500006445 0.132 0.099 1.162 2.191 22.443 -47.618
0.8631154169997899 0.135 0.103 1.157 0.664 21.443 -46.321
0.8700255000003381 0.142 0.105 1.156 -1.893 22.771 -45.214
0.8822513329942012 0.132 0.095 1.19 -1.618 21.344 -44.061
0.8941177499946207 0.129 0.093 1.177 -0.618 20.504 -42.191
0.9012227079947479 0.114 0.091 1.176 0.382 19.122 -40.511
0.9132767919945763 0.138 0.081 1.173 2.221 19.473 -41.206
0.9205297079897719 0.148 0.081 1.144 2.992 23.023 -43.176
0.9327057499904186 0.15 0.09 1.159 1.763 26.649 -45.565
0.9384411249920959 0.147 0.094 1.161 0.832 30.145 -47.519
0.9516821669967612 0.127 0.116 1.184 -0.687 31.809 -48.061
0.9638433329964755 0.114 0.129 1.189 -2.771 32.13 -47.878
0.9708212919940706 0.09 0.126 1.21 -4.069 30.527 -47.137
0.9827814169984777 0.06 0.128 1.22 -4.565 26.115 -45.695
0.9896033330005594 0.068 0.122 1.208 -4.992 21.107 -44.771
1.001928792000399 0.104 0.118 1.186 -4.794 20.458 -45.023
1.0138310829934198 0.121 0.111 1.16 -4.534 22.099 -44.542
1.0209134999895468 0.12 0.084 1.165 -2.031 24.336 -43.931
1.0329437920008786 0.087 0.08 1.172 0.031 23.878 -43.046
1.0398761669930536 0.086 0.076 1.174 0.924 21.855 -43.061
1.052183541993145 0.095 0.08 1.178 1.084 23.321 -44.366
1.0644044169894187 0.09 0.088 1.163 -0.74 24.611 -45.504
1.0711854999972275 0.09 0.087 1.165 -0.985 26.71 -44.893
1.0833346669969615 0.081 0.092 1.153 -0.786 29.649 -42.71
1.090574124988052 0.065 0.083 1.167 1.267 29.954 -39.58
1.1025651669915533 0.075 0.095 1.167 3.855 27.481 -34.847
1.108373124996433 0.071 0.095 1.149 2.809 25.473 -31.473
1.121573874988826 0.062 0.074 1.178 0.023 24.412 -31.847
1.1338933329971042 0.042 0.063 1.174 -3.824 21.824 -36.336
1.140788042001077 0.076 0.059 1.176 -5.496 20.237 -41.802
1.1529253749904456 0.1 0.069 1.143 -6.275 22.023 -46.092
1.1598656669957563 0.094 0.087 1.159 -5.847 21.885 -46.863
1.17190008299076 0.103 0.101 1.16 -3.786 19.916 -45.0
1.184004291993915 0.122 0.096 1.155 -2.053 19.107 -41.969
1.190977166988887 0.121 0.108 1.157 -0.771 19.107 -40.267
1.2030960419942858 0.105 0.118 1.175 -0.71 17.489 -39.244
1.20994829198753 0.117 0.118 1.168 -3.076 16.115 -38.748
1.2221096669964027 0.147 0.105 1.157 -4.725 20.687 -41.58
1.234061582988943 0.121 0.104 1.168 -5.954 23.466 -43.046
1.2414620419876883 0.095 0.093 1.168 -5.885 22.748 -43.931
1.2532462499948451 0.095 0.079 1.162 -5.771 21.756 -45.237
1.2603265419893432 0.094 0.083 1.151 -5.023 20.29 -45.885
1.2722294579871232 0.103 0.089 1.145 -3.397 21.733 -46.237
1.2843813749932451 0.102 0.111 1.155 -2.267 20.183 -45.908
1.2913437919924036 0.111 0.129 1.162 -3.504 20.412 -45.45
1.303407374987728 0.092 0.133 1.188 -6.733 20.435 -46.206
1.310311166991596 0.08 0.119 1.189 -8.366 18.725 -45.405
1.3224249579943717 0.096 0.127 1.166 -9.626 15.466 -43.855
1.3344279999873834 0.125 0.109 1.146 -9.153 16.527 -42.481
1.341282624998712 0.092 0.091 1.147 -8.031 18.069 -42.298
1.3534823329973733 0.073 0.08 1.158 -6.008 16.359 -43.863
1.3608576669939794 0.076 0.096 1.163 -5.26 14.786 -45.336
1.372699791987543 0.099 0.092 1.141 -5.344 15.954 -46.725
1.384538166996208 0.106 0.083 1.142 -4.183 17.58 -47.069
1.3918444999872008 0.113 0.089 1.124 -3.229 20.672 -47.42
1.4036397919990122 0.095 0.099 1.152 -3.725 21.649 -47.504
1.4108091669913847 0.081 0.107 1.163 -5.389 21.557 -47.748
1.4225513329874957 0.083 0.104 1.175 -6.656 20.908 -47.687
1.4297791669960134 0.07 0.104 1.169 -5.733 19.679 -46.198
1.4417918330000248 0.083 0.096 1.177 -4.511 18.298 -45.397
1.453928957998869 0.079 0.103 1.166 -3.641 17.496 -44.725
1.4607773749885382 0.079 0.093 1.155 -2.649 17.916 -45.87
1.4726275419961894 0.07 0.084 1.153 -2.275 17.038 -46.908
1.4797474999941187 0.077 0.08 1.146 -2.58 17.908 -49.321
1.4917360830004327 0.082 0.095 1.157 -2.802 18.443 -51.137
1.5040521249902667 0.074 0.105 1.151 -2.84 18.939 -50.397
1.5109352500003297 0.076 0.112 1.155 -3.122 18.481 -49.718
1.523106957989512 0.084 0.103 1.163 -2.267 18.573 -48.206
1.5300982499902602 0.08 0.102 1.161 -1.466 18.061 -47.748
1.5423046249925392 0.067 0.101 1.167 -1.405 17.061 -47.534
1.5540885419904953 0.079 0.104 1.155 -1.634 16.115 -47.061
1.5614679579884978 0.07 0.09 1.166 -0.008 16.252 -46.962
1.5731907919980586 0.065 0.103 1.162 -0.031 13.962 -47.496
1.5801145000004908 0.078 0.104 1.141 -0.954 14.893 -48.351
1.592122666988871 0.084 0.1 1.152 -1.221 16.489 -49.908
1.6043627499893773 0.082 0.09 1.136 -1.458 19.115 -52.038
1.6111827079876093 0.077 0.091 1.154 -1.252 20.397 -52.733
1.6231660419871332 0.048 0.083 1.173 0.878 18.427 -51.611
1.630093832995044 0.039 0.075 1.159 3.244 14.565 -49.74
1.6425757919932948 0.04 0.068 1.133 5.0 13.275 -49.87
1.6498497919965303 0.043 0.057 1.142 7.679 12.458 -50.061
1.6619605829910142 0.041 0.07 1.157 9.13 10.336 -50.435
1.6740189579868456 0.062 0.092 1.151 8.473 7.71 -50.282
1.6810924579913262 0.088 0.097 1.153 8.015 8.519 -49.053
1.6938704579952173 0.094 0.112 1.155 5.725 8.359 -48.603
1.7005197499966016 0.117 0.117 1.168 3.55 10.481 -47.847
1.712579667000682 0.1 0.112 1.194 3.618 11.534 -46.626
1.7197960419871379 0.107 0.123 1.208 4.511 9.16 -45.244
1.731711374988663 0.133 0.119 1.181 3.374 11.366 -45.443
1.7439839579892578 0.117 0.104 1.202 1.87 13.458 -47.908
1.7509702919924166 0.114 0.112 1.215 1.863 12.168 -49.176
1.7632523749925895 0.135 0.114 1.17 2.29 12.405 -50.588
1.770304124991526 0.137 0.116 1.161 0.008 16.855 -52.534
1.7825165829999605 0.132 0.125 1.183 -1.885 18.557 -54.664
1.7945344579929952 0.13 0.125 1.175 -3.305 17.977 -55.26
1.8015972919965861 0.135 0.135 1.185 -3.611 16.786 -54.229
1.8136187919881195 0.14 0.136 1.174 -3.527 15.947 -52.626
1.8203107499866746 0.147 0.13 1.166 -3.679 16.176 -51.58
1.8326051670010202 0.154 0.124 1.152 -4.382 17.153 -51.588
1.8445107500010636 0.142 0.12 1.155 -4.817 17.725 -51.542
1.8514813329966273 0.147 0.119 1.145 -5.794 17.244 -51.412
1.8635408749978524 0.162 0.109 1.133 -5.885 18.748 -51.069
1.8707334169885144 0.151 0.109 1.13 -4.679 20.397 -51.26
1.8826088329951745 0.14 0.102 1.145 -3.435 21.763 -50.702
1.8899911669868743 0.117 0.103 1.154 -1.305 22.473 -51.519
1.9015667499916162 0.107 0.112 1.151 -1.466 20.893 -51.405
1.9138034169882303 0.119 0.106 1.138 -2.809 20.656 -51.634
1.920699832990067 0.092 0.103 1.155 -2.756 19.435 -52.137
1.9329214579920517 0.11 0.101 1.133 -3.267 18.069 -51.679
1.939757832995383 0.108 0.095 1.13 -2.71 18.656 -52.649
1.9518244579958264 0.101 0.097 1.14 -0.992 19.237 -54.183
1.9639579169888748 0.105 0.094 1.142 1.466 20.0 -55.55
1.9709907499927795 0.104 0.11 1.138 2.26 19.985 -57.252
1.9832218329975149 0.111 0.122 1.14 3.176 21.84 -58.046
1.9900549169979058 0.1 0.118 1.167 4.458 22.496 -58.939
2.0022153749887366 0.117 0.14 1.146 4.099 22.901 -59.397
2.014417667000089 0.126 0.158 1.158 2.863 23.847 -60.031
2.021412166999653 0.105 0.149 1.169 1.786 24.183 -59.069
2.0336713750002673 0.083 0.151 1.199 2.366 19.939 -57.901
2.040802582996548 0.09 0.138 1.176 2.42 16.687 -57.122
2.05298441699415 0.114 0.133 1.163 1.969 16.122 -57.626
2.0595507079997333 0.101 0.109 1.147 4.076 17.122 -57.992
2.0718748749932274 0.098 0.111 1.162 6.733 17.008 -58.817
2.084188416993129 0.102 0.122 1.161 7.947 16.405 -60.099
2.091287791990908 0.119 0.123 1.141 6.672 17.939 -63.374
2.1034363329963526 0.129 0.136 1.146 4.244 20.618 -66.107
2.110542957991129 0.124 0.141 1.167 3.969 21.855 -66.55
2.1227586249879096 0.114 0.15 1.182 5.298 21.221 -65.015
2.1295164999901317 0.134 0.159 1.191 6.626 17.771 -62.115
2.1416522919898853 0.164 0.186 1.174 7.786 17.672 -57.847
2.15403404198878 0.171 0.202 1.164 5.443 17.901 -54.718
2.161267916992074 0.166 0.179 1.136 2.069 20.603 -52.901
2.1733494169893675 0.126 0.154 1.16 1.824 22.58 -53.305
2.18020862499543 0.087 0.147 1.187 3.885 19.885 -53.672
2.1925874579901574 0.092 0.147 1.168 5.672 18.038 -55.389
2.1986742499866523 0.085 0.146 1.158 6.214 17.718 -58.26
2.2117137919995002 0.074 0.166 1.173 6.779 16.031 -59.985
2.2237502499920083 0.076 0.161 1.16 8.038 15.267 -61.511
2.2309519999980694 0.081 0.165 1.143 8.985 14.847 -62.313
2.2431521249964135 0.08 0.172 1.153 9.244 15.664 -62.565
2.2500104169885162 0.047 0.184 1.182 11.931 12.733 -61.687
2.2621119169925805 0.091 0.168 1.181 12.511 10.542 -62.008
2.274314582988154 0.104 0.172 1.153 13.168 11.008 -63.779
2.281351582991192 0.106 0.181 1.14 14.282 13.336 -63.977
2.2935026669874787 0.113 0.148 1.13 17.527 16.168 -64.748
2.3001486669963924 0.072 0.147 1.151 20.924 16.092 -67.038
2.3124814170005266 0.081 0.154 1.15 23.863 15.939 -70.015
2.324414374990738 0.096 0.146 1.155 26.573 20.565 -76.046
2.3316108329890994 0.072 0.168 1.15 27.092 23.443 -82.611
2.3434564169874648 0.072 0.208 1.166 24.817 23.046 -84.0
2.3504224169882946 0.062 0.222 1.195 21.0 23.855 -80.908
2.3623926669970388 0.079 0.229 1.211 12.511 20.496 -79.702
2.3744584169908194 0.065 0.238 1.203 3.519 17.702 -77.992
2.3817169169924455 0.071 0.233 1.21 -4.992 12.664 -76.221
2.393570542000816 0.073 0.224 1.191 -13.87 6.443 -74.061
2.400985957996454 0.105 0.198 1.182 -20.634 2.931 -73.397
2.4127070829999866 0.12 0.164 1.158 -22.725 1.954 -74.42
2.4197878329869127 0.133 0.135 1.145 -22.313 1.282 -75.71
2.431823874998372 0.165 0.134 1.122 -20.55 1.901 -75.748
2.4439243329979945 0.218 0.133 1.105 -18.008 4.992 -74.473
2.4506570829980774 0.221 0.115 1.115 -15.626 9.992 -72.634
2.462895666991244 0.174 0.109 1.139 -14.389 12.328 -71.382
2.469552124995971 0.158 0.108 1.139 -15.885 11.45 -71.092
2.4819219579949277 0.136 0.086 1.156 -17.16 10.153 -71.099
2.493882416994893 0.145 0.07 1.156 -17.733 6.901 -71.366
2.5006935419951333 0.161 0.06 1.138 -18.321 7.298 -70.344
2.5128184579953086 0.161 0.043 1.157 -17.634 8.969 -69.191
2.519822791990009 0.156 0.033 1.162 -17.115 7.183 -67.321
2.5318877499958035 0.184 0.022 1.166 -17.344 7.282 -65.603
2.5437929170002462 0.187 0.021 1.184 -18.321 8.809 -64.267
