Time AX AY AZ GX GY GZ
0.019685124992975034 0.023 0.225 1.165 -3.084 24.878 -42.702
0.026192999997874722 0.03 0.235 1.178 -3.71 26.74 -44.26
0.03842258299118839 0.026 0.257 1.201 -5.26 27.122 -45.015
0.05064108299848158 0.012 0.259 1.217 -7.107 25.832 -44.206
0.0573279999953229 0.016 0.269 1.206 -8.55 23.45 -42.718
0.06948037499387283 0.027 0.259 1.208 -9.58 21.817 -41.565
0.07627341599436477 0.028 0.24 1.177 -9.641 20.466 -39.969
0.08851020799193066 0.037 0.233 1.163 -8.992 20.664 -39.817
0.10052112500125077 0.024 0.228 1.149 -7.504 22.26 -39.771
0.1075314579939004 0.044 0.219 1.129 -3.382 22.947 -40.916
0.11959554099303205 0.075 0.207 1.113 -0.344 25.977 -42.107
0.12641637500200886 0.066 0.226 1.119 -0.389 28.427 -42.412
0.13843220799753908 0.061 0.214 1.153 -2.168 29.466 -41.992
0.1510416660021292 0.032 0.212 1.171 -2.176 26.252 -41.13
0.157846582995262 0.024 0.195 1.147 -1.061 22.863 -39.206
0.1700039159914013 0.055 0.206 1.132 -0.733 21.137 -37.55
0.17637454099894967 0.089 0.236 1.127 -3.412 22.672 -34.481
0.1891604999982519 0.101 0.244 1.143 -7.557 26.053 -30.244
0.200851582994801 0.096 0.245 1.166 -11.229 27.412 -25.183
0.20769450000079814 0.074 0.218 1.162 -14.733 28.534 -21.565
0.21982870799547527 0.049 0.157 1.162 -15.954 30.809 -22.504
0.22676829100237228 0.012 0.124 1.152 -15.618 34.061 -27.58
0.23871816600149032 -0.034 0.083 1.156 -15.687 35.305 -35.977
0.2506830829952378 -0.057 0.096 1.171 -13.832 32.626 -42.885
0.25731145800091326 -0.046 0.108 1.147 -10.252 29.71 -46.214
0.26957074999518227 -0.049 0.126 1.142 -8.496 25.511 -47.374
0.27642820800247137 -0.045 0.118 1.152 -6.634 22.618 -47.519
0.28797199999098666 -0.054 0.118 1.151 -5.687 17.519 -47.687
0.300072458005161 -0.021 0.117 1.146 -6.206 13.397 -47.748
0.3069258329924196 -0.001 0.113 1.118 -6.481 11.985 -48.115
0.31903495799633674 0.028 0.109 1.13 -4.435 9.794 -47.542
0.3260112909920281 0.042 0.14 1.119 -4.565 8.359 -45.496
0.33837816599407233 0.077 0.175 1.131 -9.107 9.382 -42.26
0.3503343749907799 0.084 0.166 1.146 -12.145 14.061 -38.489
0.3570153750042664 0.073 0.128 1.126 -13.58 19.137 -36.473
0.36925829100073315 0.05 0.093 1.125 -12.221 21.351 -36.45
0.376045790995704 0.037 0.073 1.136 -8.527 22.878 -37.191
0.3883832080027787 0.009 0.076 1.139 -2.282 22.038 -36.939
0.40051833300094586 0.0 0.093 1.169 3.656 19.344 -36.504
0.4073403749935096 0.018 0.13 1.165 5.557 18.244 -36.038
0.4196221659949515 0.034 0.143 1.188 3.817 18.985 -37.107
0.42679804099316243 0.031 0.159 1.195 -0.725 18.702 -38.031
0.43863008299376816 0.037 0.155 1.217 -3.908 18.061 -38.641
0.4509376659989357 0.048 0.15 1.212 -6.458 17.412 -38.328
0.4578687500033993 0.071 0.148 1.188 -8.527 18.733 -38.634
0.47000829099852126 0.058 0.13 1.189 -9.702 19.443 -39.664
0.4771244159928756 0.064 0.13 1.169 -10.053 20.168 -40.473
0.48912612500134856 0.075 0.113 1.166 -9.992 21.931 -41.534
0.5010857500019483 0.067 0.111 1.176 -8.779 23.092 -42.328
0.5080138329940382 0.062 0.12 1.162 -7.565 23.351 -41.916
0.5199531249963911 0.07 0.109 1.148 -6.008 24.557 -40.618
0.5272250409907429 0.065 0.117 1.155 -4.26 25.725 -38.977
0.5389571659907233 0.053 0.124 1.172 -2.412 25.672 -38.55
0.5511446250020526 0.031 0.122 1.199 -1.305 22.939 -37.359
0.5579064579942496 0.031 0.152 1.211 -2.115 19.305 -36.145
0.5700849999993807 0.062 0.166 1.191 -4.985 19.473 -35.107
0.5768178750004154 0.057 0.155 1.19 -8.573 21.992 -34.458
0.5891662909998558 0.04 0.147 1.183 -10.779 21.771 -34.244
0.6012193749920698 0.032 0.109 1.177 -10.947 21.511 -34.206
0.6081517080019694 0.017 0.092 1.153 -10.893 22.725 -35.977
0.6199690829962492 0.0 0.083 1.177 -10.145 23.489 -37.71
0.6269507910037646 -0.031 0.082 1.183 -9.038 21.519 -39.221
0.6389972079923609 -0.04 0.068 1.181 -9.176 20.26 -42.527
0.6508812499960186 -0.03 0.07 1.173 -8.672 18.427 -46.534
0.6579583330021705 -0.021 0.083 1.172 -7.511 16.611 -49.908
0.6700876249960857 0.0 0.107 1.172 -7.458 12.344 -50.58
0.6768786659959005 0.031 0.119 1.17 -6.489 9.191 -49.649
0.6889805410028202 0.075 0.136 1.148 -6.084 8.84 -46.45
0.7012363749963697 0.093 0.132 1.108 -7.107 12.481 -44.099
0.7080642910004826 0.083 0.122 1.113 -8.718 16.588 -41.992
0.7201482499949634 0.049 0.121 1.133 -9.565 18.947 -40.824
0.7271200830000453 0.023 0.11 1.129 -9.939 19.58 -38.779
0.739345374997356 0.021 0.112 1.133 -10.435 20.435 -37.351
0.751265582992346 0.007 0.089 1.116 -11.145 23.031 -36.595
0.757933957997011 -0.005 0.074 1.11 -10.069 24.321 -37.863
0.7698672499973327 -0.007 0.043 1.092 -7.641 26.107 -39.573
0.7766807909938507 -0.023 0.037 1.109 -4.969 26.687 -42.252
0.7887517499912065 -0.011 0.047 1.125 -1.87 26.26 -44.252
0.8010703329928219 -0.001 0.076 1.125 -0.924 26.107 -44.954
0.8080098329955945 0.003 0.09 1.179 0.298 23.725 -44.191
0.8199433330009924 0.007 0.114 1.178 0.496 20.527 -42.267
0.8272548749955604 0.044 0.115 1.173 -0.076 18.733 -40.504
0.8389534159941832 0.032 0.124 1.177 -0.992 16.733 -38.84
0.851155625001411 0.026 0.11 1.182 -1.122 13.748 -37.725
0.8580456659983611 0.043 0.117 1.165 -2.321 11.84 -36.321
0.8703036660008365 0.043 0.104 1.162 -2.756 12.55 -35.412
0.8771870829950785 0.036 0.081 1.153 -2.58 13.634 -36.069
0.8891876249981578 0.042 0.087 1.154 -2.756 15.496 -37.84
0.8950368329969933 0.05 0.085 1.15 -1.878 18.916 -39.573
0.9084362499997951 0.059 0.094 1.148 -2.061 23.275 -41.313
0.9204452909907559 0.034 0.098 1.163 -1.641 24.412 -42.221
0.9273954999953276 0.026 0.113 1.173 -1.916 22.588 -42.229
0.9394780000002356 0.02 0.108 1.179 -2.916 20.359 -41.282
0.9467056249995949 0.031 0.107 1.179 -3.198 18.985 -40.137
0.9585294159915065 0.042 0.098 1.156 -2.954 19.962 -39.42
0.9706033330003265 0.033 0.094 1.162 -3.611 21.656 -39.504
0.9776104999909876 0.015 0.075 1.179 -3.29 20.771 -39.725
0.9896065829962026 0.036 0.075 1.162 -1.489 20.328 -39.824
0.9966247499978635 0.021 0.077 1.157 -0.252 22.183 -39.824
1.0084527080034604 -0.01 0.104 1.185 -1.473 20.458 -40.107
1.0204520410043187 -0.016 0.1 1.22 -2.611 17.305 -39.771
1.027540166003746 0.002 0.104 1.183 -3.687 15.863 -40.015
1.0395169999974314 0.021 0.1 1.191 -4.351 16.916 -40.802
1.046682290994795 0.009 0.093 1.19 -3.069 16.847 -41.336
1.0587146659963764 0.019 0.094 1.164 -2.29 16.702 -41.595
1.070876458004932 0.044 0.075 1.14 -2.061 19.389 -41.786
1.0776840000035008 0.05 0.082 1.143 -2.229 23.015 -43.076
1.089745082994341 0.041 0.095 1.16 -2.183 24.611 -43.947
1.0966025829984574 0.032 0.118 1.173 -3.099 24.221 -44.786
1.10892270799377 0.033 0.122 1.189 -3.458 23.802 -45.305
1.120907457996509 0.02 0.118 1.19 -3.634 22.496 -44.542
1.1278891249967273 0.033 0.118 1.185 -3.321 21.634 -43.542
1.139984291003202 0.031 0.126 1.177 -4.0 21.076 -42.878
1.1470322079985635 0.016 0.111 1.194 -5.031 20.725 -42.679
1.1587240829976508 -0.008 0.116 1.196 -6.74 18.595 -42.374
1.1710398330033058 0.009 0.103 1.185 -8.298 18.069 -43.061
1.1779775000031805 -0.004 0.099 1.186 -9.282 17.45 -44.84
1.1900340409920318 0.005 0.09 1.184 -8.328 16.817 -45.336
1.197059124999214 0.027 0.094 1.147 -8.122 17.779 -45.076
1.209015125001315 0.036 0.077 1.141 -6.847 19.863 -46.321
1.2208853749907576 0.033 0.078 1.147 -5.328 21.55 -47.519
1.2281530829932308 0.049 0.101 1.152 -5.588 22.084 -48.588
1.2399889160005841 0.042 0.105 1.179 -5.221 21.153 -46.824
1.247270624997327 0.021 0.114 1.188 -5.153 17.443 -44.725
1.2590312499960419 0.035 0.097 1.185 -3.718 14.733 -43.351
1.2713449159928132 0.031 0.105 1.173 -3.069 12.168 -41.71
1.2780357909941813 0.034 0.087 1.166 -2.458 11.099 -40.634
1.2901205829984974 0.023 0.094 1.178 -2.214 10.573 -41.137
1.296956833000877 0.042 0.091 1.17 -1.496 10.855 -41.519
1.3093431659945054 0.045 0.098 1.145 -2.229 14.374 -42.26
1.3148731249966659 0.032 0.092 1.146 -2.611 18.115 -43.061
1.3282890830014367 0.022 0.094 1.141 -2.893 19.84 -43.641
1.3405781659967033 0.025 0.084 1.155 -3.618 21.863 -44.817
1.347647832997609 0.006 0.111 1.172 -4.603 20.794 -45.351
1.3594489160022931 0.003 0.124 1.17 -5.374 18.55 -44.916
1.3664074999978766 0.019 0.129 1.182 -6.229 16.672 -43.924
1.3785579160030466 0.018 0.124 1.182 -7.084 14.71 -42.382
1.390637415999663 0.013 0.113 1.169 -7.679 12.275 -40.061
1.3975755409919657 0.02 0.098 1.146 -7.305 10.695 -38.351
1.4097907910036156 0.008 0.081 1.129 -7.046 9.198 -36.954
1.4166114999970887 0.005 0.082 1.162 -8.397 6.336 -36.893
1.4290164160047425 0.019 0.06 1.147 -9.519 4.87 -37.672
1.4409775829990394 0.043 0.056 1.133 -10.092 5.282 -40.076
1.4480354160041315 0.073 0.047 1.105 -10.015 8.107 -42.756
1.4600223329907749 0.069 0.055 1.127 -8.901 10.221 -44.573
1.4667717499978608 0.077 0.069 1.14 -6.893 11.374 -45.443
1.4790439999924274 0.095 0.079 1.154 -5.824 12.595 -46.359
1.49112612499448 0.1 0.095 1.167 -5.687 12.351 -45.885
1.498017833000631 0.119 0.087 1.162 -6.168 13.45 -46.359
1.5102020829945104 0.117 0.101 1.156 -5.733 15.305 -46.359
1.5171902500005672 0.105 0.089 1.172 -3.382 15.779 -45.481
1.529145124994102 0.088 0.1 1.192 -1.893 14.099 -43.626
1.5410704579990124 0.092 0.104 1.191 -2.198 12.947 -42.817
1.5484911249950528 0.084 0.106 1.175 -3.672 11.725 -42.55
1.5601727079920238 0.097 0.103 1.181 -5.924 11.626 -43.496
1.5673443749983562 0.097 0.086 1.158 -8.954 14.084 -45.137
1.5792636660044082 0.106 0.087 1.177 -9.824 16.954 -46.779
1.5866843330004485 0.116 0.088 1.153 -9.763 20.588 -48.519
1.5983127910003532 0.105 0.084 1.142 -9.496 24.748 -48.725
1.610335874996963 0.095 0.081 1.158 -7.74 26.466 -49.473
1.6173068329953821 0.086 0.08 1.155 -8.092 27.55 -49.74
1.6294191659981152 0.077 0.074 1.178 -8.099 27.969 -50.084
1.636579415993765 0.054 0.065 1.179 -7.641 26.924 -49.656
1.648533250001492 0.05 0.067 1.177 -7.008 24.595 -49.076
1.6606294579978567 0.062 0.062 1.153 -6.344 24.061 -49.214
1.6675219159951666 0.07 0.05 1.163 -4.061 24.947 -49.985
1.6797399159986526 0.07 0.069 1.149 -2.229 25.687 -50.191
1.6866345409944188 0.065 0.089 1.145 -2.74 27.519 -50.282
1.6987986250023823 0.051 0.088 1.18 -4.244 27.206 -50.809
1.7105714159988565 0.037 0.07 1.2 -4.237 24.55 -50.802
1.7176892909919843 0.031 0.053 1.178 -3.359 22.076 -50.847
1.7297086250036955 0.034 0.057 1.161 -3.053 19.672 -50.504
1.7368772079935297 0.052 0.06 1.144 -1.26 18.824 -48.802
1.7490898329997435 0.071 0.07 1.12 0.16 20.954 -47.458
1.7611196660000132 0.053 0.076 1.16 0.695 24.687 -47.351
1.7681648330035387 0.003 0.087 1.197 0.542 26.656 -47.74
1.7802211249945685 -0.028 0.068 1.208 -0.374 26.244 -49.481
1.7870551249943674 -0.032 0.056 1.216 -0.466 24.779 -53.824
1.7991867910022847 -0.03 0.058 1.209 -1.359 21.695 -56.252
1.8112642079940997 0.001 0.072 1.197 -2.802 18.168 -57.954
1.8180735829955665 0.039 0.069 1.193 -3.58 16.534 -58.374
1.8303376660041977 0.063 0.064 1.159 -3.496 16.122 -57.069
1.8371053750015562 0.088 0.054 1.126 -2.969 17.481 -55.916
1.8492850829934468 0.091 0.04 1.119 -0.962 18.282 -55.221
1.861089500001981 0.117 0.054 1.101 -0.382 21.443 -55.137
1.8682197909947718 0.113 0.049 1.097 0.573 26.527 -56.412
1.880503458000021 0.077 0.07 1.153 1.069 28.916 -56.885
1.8876326659956248 0.07 0.089 1.162 0.626 29.695 -55.718
1.8993899999913992 0.058 0.082 1.176 -0.168 31.656 -55.557
1.9067783749924274 0.008 0.06 1.2 0.74 30.359 -55.679
1.9187569999921834 -0.012 0.045 1.21 3.107 26.076 -55.885
1.9307059580023633 -0.002 0.044 1.216 6.168 22.412 -57.679
1.9377357909979764 0.019 0.049 1.211 8.641 19.725 -60.504
1.9500497080007335 0.045 0.074 1.22 10.443 16.695 -61.954
1.9568599579943111 0.08 0.1 1.2 10.771 15.954 -61.45
1.9691683749988442 0.107 0.1 1.204 9.466 18.313 -59.977
1.9812821249943227 0.094 0.103 1.211 7.496 20.145 -58.74
1.9883561659953557 0.072 0.099 1.209 3.527 20.26 -57.748
2.000427499995567 0.062 0.082 1.238 0.405 18.107 -57.351
2.0073309580038767 0.074 0.073 1.213 -2.198 15.817 -57.198
2.019595499994466 0.078 0.074 1.195 -5.359 17.794 -55.916
2.0263252500008093 0.074 0.057 1.183 -6.237 18.359 -54.252
2.038535999992746 0.074 0.047 1.163 -5.412 18.244 -53.405
2.050486499996623 0.08 0.043 1.138 -5.191 20.916 -53.954
2.0576624999957858 0.069 0.033 1.143 -2.351 22.763 -55.16
2.069539000003715 0.07 0.061 1.161 -0.519 22.878 -55.023
2.0767848749965196 0.089 0.075 1.168 0.626 25.275 -54.252
2.088798249998945 0.073 0.091 1.177 0.947 28.084 -53.466
2.1009695410029963 0.037 0.083 1.181 2.153 27.397 -51.015
2.1081373329943744 0.03 0.078 1.167 2.557 24.802 -49.344
2.1202101660019252 0.012 0.08 1.168 1.58 20.702 -48.366
2.1270939160021953 0.006 0.082 1.163 1.725 16.802 -46.275
2.139155374999973 0.016 0.094 1.164 2.397 14.076 -44.893
2.146595875005005 0.032 0.103 1.147 1.069 16.771 -43.977
2.158543458004715 0.011 0.094 1.16 -0.397 19.26 -43.183
2.170514750003349 -0.017 0.068 1.164 -0.313 18.924 -42.313
2.17741379099607 -0.022 0.061 1.149 0.534 17.298 -43.58
2.1895853329915553 -0.021 0.034 1.134 1.015 17.702 -45.687
2.1964639999932842 -0.011 0.051 1.132 1.29 18.855 -48.824
2.208650040993234 0.012 0.061 1.137 1.962 20.389 -50.893
2.2207749579974916 -0.002 0.073 1.122 1.076 22.046 -51.74
2.227716416004114 -0.03 0.064 1.146 0.908 20.908 -51.26
2.2399008329957724 -0.052 0.06 1.146 0.84 17.183 -51.168
2.246796457999153 -0.048 0.052 1.14 0.168 12.351 -51.542
2.258835457992973 -0.025 0.038 1.112 0.237 9.855 -52.336
2.2710549579933286 -0.008 0.053 1.076 1.275 11.237 -54.26
2.278167915996164 0.002 0.037 1.072 1.733 14.489 -56.069
2.2902210829925025 0.022 0.036 1.08 2.176 17.557 -59.267
2.2969483749911888 0.048 0.057 1.091 2.885 21.321 -62.718
2.3092210829927353 0.071 0.091 1.122 2.885 24.878 -64.863
2.3161642079940066 0.073 0.12 1.13 2.023 27.565 -64.916
2.32856537499174 0.069 0.131 1.165 1.015 28.221 -62.359
2.340681624991703 0.045 0.131 1.205 0.855 24.237 -59.015
2.347358625003835 0.032 0.14 1.201 -0.305 18.328 -55.58
2.359562540994375 0.049 0.121 1.217 -0.252 12.656 -52.969
2.3666027080034837 0.061 0.133 1.193 -0.71 10.29 -50.511
2.378802249993896 0.074 0.119 1.204 -0.786 11.046 -50.534
2.390959208001732 0.063 0.1 1.193 -0.282 12.519 -50.611
2.3976877499953844 0.05 0.094 1.206 1.183 12.908 -50.664
2.40998558299907 0.051 0.107 1.187 1.42 14.473 -50.58
2.4170934580033645 0.041 0.089 1.209 2.115 16.221 -52.779
2.429405582995969 0.013 0.087 1.244 2.947 14.771 -53.588
2.4365378329966916 0.034 0.095 1.219 3.779 13.191 -54.466
2.4485947499924805 0.043 0.098 1.199 3.046 14.191 -53.649
2.4607867500017164 0.039 0.09 1.203 4.0 15.611 -51.832
2.4676151659950847 0.041 0.098 1.194 6.916 15.122 -50.626
2.479695582995191 0.044 0.116 1.171 5.473 14.824 -49.198
2.486923125004978 0.033 0.097 1.213 3.87 16.565 -50.031
2.499060540998471 0.03 0.089 1.223 4.496 16.84 -52.198
2.511146415999974 0.037 0.105 1.203 2.351 18.405 -53.618
2.5180271659919526 0.038 0.111 1.234 -1.87 17.718 -56.405
2.53026604099432 0.032 0.116 1.224 -6.053 14.908 -57.519
