Time AX AY AZ GX GY GZ
0.014440167000003612 -0.211 -0.108 0.975 -0.992 7.084 -3.198
0.026456292000005988 -0.212 -0.104 0.995 -1.183 3.458 -3.427
0.033257542000001195 -0.186 -0.095 1.002 0.031 -0.519 -4.618
0.045365000000003874 -0.195 -0.084 0.97 -0.221 0.099 -4.573
0.057568874999986974 -0.209 -0.093 0.978 -0.092 0.092 -4.405
0.06478308399999833 -0.196 -0.102 0.987 0.145 -2.221 -5.496
0.0770685839999885 -0.193 -0.101 0.974 0.305 -1.244 -6.351
0.08403529200001003 -0.188 -0.107 0.964 0.26 1.992 -6.244
0.09629654200000459 -0.182 -0.108 0.967 0.382 4.763 -6.557
0.10348654200001306 -0.193 -0.093 0.959 -0.496 6.214 -4.992
0.11556350000000748 -0.21 -0.085 0.948 -2.023 5.641 -4.985
0.12762383399999067 -0.225 -0.089 0.976 -3.481 3.023 -5.061
0.13484633400000234 -0.228 -0.104 0.972 -3.229 1.137 -4.298
0.1468438340000091 -0.245 -0.117 0.985 -1.519 1.374 -2.893
0.15433250000000953 -0.259 -0.128 0.991 0.351 0.137 -1.603
0.16629741700000977 -0.247 -0.116 0.981 1.55 -3.031 -0.802
0.17358012500000086 -0.214 -0.104 0.946 1.511 -3.855 0.076
0.1855913340000086 -0.198 -0.105 0.925 0.832 -0.221 -0.863
0.19764229200001182 -0.197 -0.083 0.95 -1.229 0.687 -0.565
0.20467658399999777 -0.214 -0.072 0.95 -3.137 -0.489 -0.55
0.21678470899999525 -0.218 -0.083 0.959 -4.397 -3.061 0.42
0.22403087500001106 -0.207 -0.093 0.974 -3.611 -4.511 0.84
0.23605558400001314 -0.21 -0.101 0.983 -1.817 -4.076 1.931
0.2420105840000133 -0.203 -0.106 0.967 -0.45 -3.748 2.481
0.25538316699999086 -0.2 -0.103 0.977 0.0 -4.794 1.855
0.2674346670000034 -0.186 -0.1 0.961 -0.427 -4.191 0.809
0.27445870900001523 -0.174 -0.122 0.951 -0.573 -1.527 -0.42
0.2864716670000007 -0.184 -0.088 0.953 -3.389 0.557 -1.305
0.29378650000001016 -0.177 -0.091 0.934 -5.824 4.435 -0.725
0.3058377499999949 -0.214 -0.121 0.966 -6.908 8.42 -0.885
0.31781824999998776 -0.285 -0.113 0.986 -6.748 8.809 0.832
0.32508562500001403 -0.316 -0.124 1.018 -3.16 2.893 5.55
0.3371507500000064 -0.292 -0.137 0.988 -0.122 -0.237 7.679
0.34443470900001216 -0.27 -0.103 0.987 2.313 -1.527 9.183
0.35642141700000707 -0.232 -0.106 0.981 5.321 -4.214 8.84
0.36375691699998924 -0.225 -0.109 0.976 6.802 -8.168 7.084
0.37579058400001486 -0.233 -0.071 0.951 4.053 -12.344 7.366
0.3878458339999895 -0.204 -0.078 0.926 -1.198 -13.527 6.84
0.39484100000001376 -0.201 -0.088 0.921 -6.046 -10.321 6.458
0.4069263339999907 -0.195 -0.121 0.963 -7.42 -5.076 7.725
0.4141754999999989 -0.24 -0.149 1.009 -6.015 -3.962 9.344
0.4262527500000033 -0.253 -0.155 1.024 -3.664 -5.229 11.511
0.434320624999998 -0.223 -0.129 1.021 -0.725 -4.992 12.641
0.4453469590000054 -0.203 -0.121 0.988 1.664 -2.267 12.794
0.457347709000004 -0.226 -0.112 0.987 2.336 -2.435 13.374
0.46469404199999076 -0.218 -0.111 0.969 2.023 -6.389 12.969
0.47670504199999186 -0.203 -0.104 0.935 0.115 -6.557 11.435
0.4837535419999881 -0.211 -0.092 0.932 -3.687 -5.771 11.489
0.49585454199998935 -0.212 -0.117 0.933 -6.611 -3.901 12.42
0.5076075839999987 -0.217 -0.148 0.97 -5.71 -4.565 11.176
0.5149204999999881 -0.235 -0.127 0.969 -3.832 -6.16 13.939
0.5266782920000139 -0.238 -0.11 0.975 -3.305 -8.0 16.939
0.534015791999991 -0.201 -0.121 0.982 -2.626 -9.649 16.565
0.5458244170000057 -0.204 -0.104 0.983 -2.733 -10.183 16.282
0.5575809169999957 -0.193 -0.092 1.007 -2.237 -11.847 16.664
0.5646729169999958 -0.174 -0.115 1.008 -1.489 -14.336 15.076
0.5767375419999894 -0.158 -0.085 0.983 -2.832 -13.771 14.176
0.5837549999999965 -0.13 -0.084 0.961 -3.359 -7.939 14.748
0.5957972090000112 -0.155 -0.094 0.954 -4.931 -1.221 15.443
0.6075777920000007 -0.169 -0.108 0.98 -5.328 -0.26 14.771
0.6149388340000144 -0.209 -0.094 0.999 -3.565 -4.618 14.405
0.6266785839999898 -0.169 -0.093 0.993 -2.137 -8.565 13.969
0.6340071250000108 -0.191 -0.094 0.988 -0.824 -9.206 13.336
0.645686000000012 -0.16 -0.112 0.994 -0.237 -9.885 14.267
0.6578275420000068 -0.154 -0.128 0.992 -0.489 -8.542 12.672
0.6646560840000006 -0.163 -0.12 1.01 -1.122 -6.527 14.015
0.6767694170000027 -0.161 -0.124 1.004 -2.687 -3.977 14.855
0.683929959000011 -0.156 -0.117 1.002 -4.168 0.771 15.168
0.6961027920000049 -0.151 -0.131 1.013 -3.702 7.374 15.321
0.7033175420000077 -0.194 -0.133 1.017 -1.924 12.092 14.855
0.7152980840000112 -0.163 -0.13 1.042 2.718 8.977 17.076
0.7275856669999996 -0.16 -0.108 0.981 4.427 6.382 17.206
0.7348934999999983 -0.148 -0.091 0.94 4.282 6.748 17.321
0.746888250000012 -0.144 -0.093 0.93 4.267 7.115 16.344
0.7542175840000027 -0.199 -0.076 0.922 1.496 4.634 17.321
0.7662385000000143 -0.208 -0.072 0.92 -1.939 -0.023 20.153
0.7733387499999935 -0.185 -0.092 0.919 -5.221 -5.053 19.092
0.7853416250000009 -0.179 -0.09 0.931 -6.786 -5.435 19.832
0.7971358750000093 -0.155 -0.117 0.945 -6.45 -4.45 21.191
0.804521875000006 -0.153 -0.129 0.981 -5.45 -5.374 20.389
0.8162480420000122 -0.156 -0.126 1.0 -3.206 -7.977 20.519
0.8235543339999936 -0.128 -0.124 0.993 -1.985 -9.504 20.382
0.8354761669999959 -0.103 -0.116 0.956 -1.748 -4.611 20.092
0.8473961669999994 -0.133 -0.101 0.924 -3.298 1.962 20.534
0.8546954589999984 -0.138 -0.108 0.934 -5.26 4.366 20.84
0.8667367920000117 -0.15 -0.104 0.948 -6.076 1.359 20.405
0.8737337919999959 -0.155 -0.099 0.935 -6.16 -2.977 19.595
0.885758917000004 -0.161 -0.107 0.952 -6.824 -7.863 19.664
0.8977074999999957 -0.137 -0.113 0.946 -7.038 -11.634 17.664
0.9043401250000045 -0.136 -0.129 0.938 -7.008 -10.977 16.092
0.9166898340000103 -0.167 -0.121 0.944 -5.481 -7.878 18.412
0.9237650000000031 -0.173 -0.137 0.953 -3.206 -6.74 21.374
0.9358575839999901 -0.17 -0.128 0.938 -3.305 -4.832 22.664
0.9478384589999962 -0.155 -0.111 0.921 -4.634 -2.183 23.885
0.9549194589999956 -0.162 -0.107 0.911 -6.641 -0.321 24.618
0.9669157499999983 -0.144 -0.106 0.917 -8.557 -0.847 24.794
0.9739700840000012 -0.131 -0.108 0.941 -9.321 -1.611 24.443
0.9860134589999916 -0.118 -0.112 0.951 -7.794 -1.542 23.87
0.9978263339999955 -0.14 -0.116 0.966 -6.954 -2.473 23.336
1.0049411669999984 -0.137 -0.12 0.979 -5.588 -7.511 22.916
1.0168763750000096 -0.09 -0.118 0.963 -4.855 -10.809 21.718
1.023602000000011 -0.115 -0.105 0.916 -5.84 -4.389 22.008
1.035823334000014 -0.139 -0.121 0.935 -8.344 1.588 23.359
1.0428202500000054 -0.152 -0.123 0.985 -9.344 -0.267 23.252
1.0547116669999923 -0.153 -0.1 0.99 -9.237 -3.26 24.939
1.067045084 -0.146 -0.102 0.961 -9.924 -1.824 26.397
1.0737685 -0.156 -0.119 0.983 -9.412 -2.595 26.351
1.0860284999999976 -0.138 -0.133 1.017 -6.634 -7.977 26.183
1.0927817090000076 -0.136 -0.13 1.012 -4.977 -12.351 26.405
1.1048736669999926 -0.104 -0.128 1.001 -3.55 -14.229 26.023
1.1170536250000112 -0.089 -0.136 0.98 -3.015 -13.534 25.023
1.1238662920000024 -0.08 -0.124 0.978 -3.168 -10.008 25.046
1.1358668340000122 -0.077 -0.125 0.973 -3.191 -4.237 25.344
1.1428695419999997 -0.096 -0.119 0.948 -5.542 0.191 25.611
1.155223124999992 -0.112 -0.106 0.941 -7.916 2.374 26.313
1.1674193750000086 -0.109 -0.127 0.969 -7.023 1.229 25.733
1.1742489590000105 -0.135 -0.124 0.959 -6.527 -2.84 25.634
1.1863570000000152 -0.083 -0.127 0.954 -6.092 -7.206 24.061
1.1931745420000084 -0.069 -0.116 0.954 -6.107 -7.878 22.74
1.2055849589999923 -0.068 -0.12 0.954 -6.802 -5.084 21.939
1.217698750000011 -0.086 -0.137 0.974 -6.893 -2.718 20.939
1.224684625000009 -0.125 -0.12 0.98 -7.573 -2.137 21.405
1.2367210419999992 -0.137 -0.114 0.978 -8.679 -2.336 22.802
1.2437325840000142 -0.133 -0.124 0.974 -9.656 -1.817 23.641
1.2558156670000074 -0.125 -0.132 0.976 -9.26 -2.282 24.145
1.2676314169999898 -0.116 -0.141 0.994 -8.366 -4.649 24.267
1.2749670000000037 -0.11 -0.147 1.028 -6.901 -8.611 24.794
1.2866927500000145 -0.096 -0.153 1.031 -4.069 -11.733 23.916
1.2937706669999898 -0.083 -0.135 1.014 -2.145 -12.824 23.55
1.3056206249999889 -0.052 -0.109 0.954 -2.832 -10.786 22.916
1.317577875000012 -0.031 -0.101 0.926 -5.237 -5.427 22.55
1.3246423340000035 -0.045 -0.105 0.928 -7.382 -0.832 21.382
1.336673917000013 -0.066 -0.113 0.951 -9.0 -0.763 21.275
1.3436867919999997 -0.077 -0.137 0.97 -9.374 -2.901 20.443
1.3558539999999937 -0.094 -0.144 0.991 -8.298 -4.626 19.954
1.3678383339999982 -0.078 -0.132 0.995 -6.122 -4.817 20.458
1.374972208999992 -0.071 -0.128 0.983 -4.55 -0.756 21.275
1.3868867090000094 -0.058 -0.12 0.974 -4.053 1.519 20.115
1.3942120000000102 -0.05 -0.101 0.962 -4.473 0.74 18.832
1.406304917 -0.034 -0.109 0.934 -5.603 0.954 17.115
1.4133462089999966 -0.069 -0.126 0.934 -7.71 1.786 15.74
1.4253890839999883 -0.103 -0.102 0.93 -11.061 0.298 16.344
1.4371198340000149 -0.136 -0.121 0.956 -11.504 -2.885 17.748
1.444201917000015 -0.136 -0.146 0.97 -11.16 -5.489 18.863
1.4563112920000094 -0.107 -0.147 0.993 -9.649 -8.573 19.023
1.4632835419999992 -0.104 -0.135 0.969 -7.947 -9.45 19.74
1.4753457500000025 -0.054 -0.146 0.991 -6.221 -10.466 19.527
1.4871065840000028 -0.039 -0.139 0.994 -4.481 -9.939 19.809
1.494453458999999 -0.015 -0.137 0.972 -5.16 -6.092 19.015
1.5063084999999887 -0.041 -0.129 0.981 -6.863 -0.328 17.702
1.5134979999999985 -0.057 -0.143 1.001 -7.137 1.611 16.771
1.5255380000000116 -0.083 -0.145 0.976 -7.74 2.267 16.557
1.5376329999999996 -0.107 -0.132 0.964 -8.198 4.389 18.29
1.5449552500000152 -0.077 -0.153 0.978 -7.267 3.977 18.351
1.556911250000013 -0.124 -0.141 0.96 -7.198 1.672 18.336
1.5640424999999993 -0.079 -0.139 0.983 -6.397 -4.153 18.725
1.5760702089999938 -0.053 -0.13 0.951 -6.176 -6.679 17.527
1.5877804589999869 -0.07 -0.127 0.976 -7.542 -5.573 16.489
1.5950428339999974 -0.086 -0.131 1.004 -7.466 -8.389 15.603
1.6069622089999882 -0.092 -0.143 1.006 -7.802 -11.344 15.595
1.6139686250000125 -0.073 -0.164 1.0 -8.13 -8.878 13.527
1.626010167000004 -0.109 -0.142 0.985 -7.962 -3.321 14.176
1.6319017920000078 -0.124 -0.143 1.0 -6.473 -1.191 17.58
1.6450961669999913 -0.104 -0.141 0.965 -5.588 -3.092 20.053
1.657245291999999 -0.067 -0.158 0.965 -7.374 -3.145 18.366
1.6642067919999874 -0.08 -0.157 0.976 -7.931 -1.939 17.237
1.6762864590000106 -0.099 -0.15 0.998 -6.802 -2.58 17.931
1.6832575420000069 -0.114 -0.155 1.007 -6.145 -3.695 18.412
1.6953366669999923 -0.123 -0.163 1.008 -5.687 -5.206 17.855
1.70711399999999 -0.117 -0.15 1.009 -5.046 -6.878 18.191
1.7145045839999966 -0.105 -0.162 0.981 -4.832 -6.992 18.29
1.7261908750000146 -0.12 -0.154 0.968 -6.389 -4.481 19.16
1.7336726670000076 -0.114 -0.158 0.997 -6.252 -4.664 20.58
1.745314291999989 -0.078 -0.167 1.012 -4.359 -5.55 20.687
1.7573882089999984 -0.06 -0.156 0.994 -3.809 -2.244 20.267
1.7646965419999958 -0.062 -0.155 0.987 -3.0 2.863 19.748
1.7767081670000096 -0.098 -0.152 0.988 -2.298 2.87 19.244
1.783733667000007 -0.117 -0.158 0.974 -2.412 1.145 19.481
1.7958137500000078 -0.131 -0.17 0.973 -3.328 -0.031 20.176
1.8079543339999873 -0.14 -0.17 0.991 -3.763 -4.221 20.985
1.8149511670000038 -0.126 -0.174 1.006 -3.573 -10.489 21.405
1.826698499999992 -0.078 -0.167 0.986 -2.771 -12.962 21.221
1.8335762090000003 -0.042 -0.153 0.942 -3.412 -8.481 20.511
1.8458179589999872 -0.063 -0.136 0.96 -5.153 -2.328 20.641
1.8579253750000078 -0.069 -0.164 0.994 -5.489 0.237 20.908
1.864984375000006 -0.073 -0.189 0.995 -5.366 1.29 20.214
1.8771773340000095 -0.07 -0.202 1.006 -4.855 4.641 20.962
1.8841989999999953 -0.06 -0.18 1.003 -3.244 7.244 21.847
1.896236249999987 -0.071 -0.167 0.995 -3.603 8.466 20.977
1.9034982919999948 -0.087 -0.162 0.98 -3.908 5.771 20.237
1.9156635420000043 -0.08 -0.151 0.973 -3.092 1.282 19.756
1.927614417000001 -0.079 -0.166 0.959 -3.038 0.076 19.863
1.9348976670000013 -0.082 -0.168 0.95 -3.832 0.26 20.237
1.9466535839999892 -0.073 -0.167 0.951 -3.412 -1.313 20.008
1.953988124999995 -0.08 -0.174 0.946 -3.0 -4.305 19.618
1.9657760419999875 -0.092 -0.177 0.944 -3.664 -6.611 19.687
1.97781229200001 -0.106 -0.182 0.973 -4.053 -8.985 19.901
1.984898291999997 -0.086 -0.18 0.974 -4.214 -11.527 19.595
1.996690000000001 -0.07 -0.167 0.972 -4.168 -10.695 19.824
2.003964499999995 -0.051 -0.174 0.961 -4.939 -6.779 19.58
2.0158041249999883 -0.024 -0.181 0.99 -4.649 -1.802 19.557
2.0277714169999967 -0.012 -0.174 0.979 -4.382 3.366 18.618
2.035152417000006 -0.021 -0.163 0.985 -4.389 7.939 18.351
2.0471737919999953 -0.04 -0.177 0.983 -4.443 9.206 17.656
2.05446358399999 -0.061 -0.173 0.997 -3.664 7.71 16.977
2.066565499999996 -0.088 -0.175 0.974 -3.626 6.504 17.115
2.073575874999989 -0.107 -0.177 0.969 -4.626 5.16 18.313
2.0855459999999937 -0.088 -0.176 0.984 -4.046 1.779 18.229
2.0975807920000022 -0.067 -0.165 0.985 -4.115 -1.389 16.779
2.104653667000008 -0.051 -0.16 0.971 -4.282 -0.275 15.908
2.116658666999996 -0.03 -0.173 0.97 -3.679 2.588 14.611
2.1237848750000126 -0.042 -0.189 0.976 -3.473 3.916 13.916
2.135806500000001 -0.045 -0.193 0.984 -3.0 3.023 13.382
2.1427935000000105 -0.043 -0.168 0.972 -3.313 3.13 12.939
2.1549992090000103 -0.052 -0.172 0.971 -3.374 5.466 12.298
2.16733395899999 -0.066 -0.178 0.969 -3.45 6.046 11.466
2.174021874999994 -0.059 -0.17 0.979 -3.809 4.176 11.16
2.1862815839999996 -0.04 -0.178 0.958 -4.214 5.282 10.511
2.1933029589999933 -0.031 -0.181 0.943 -5.267 8.282 9.527
2.2055371250000064 -0.065 -0.171 0.938 -6.87 10.435 9.443
2.2178045839999925 -0.088 -0.168 0.962 -6.954 8.962 10.206
2.2248989999999935 -0.089 -0.2 0.968 -6.275 7.053 11.122
2.2370774169999947 -0.068 -0.198 0.983 -5.824 7.229 12.046
2.244078709000007 -0.064 -0.192 0.971 -5.74 9.221 12.427
2.256331667000012 -0.072 -0.193 1.003 -4.16 8.611 12.443
2.2632278750000125 -0.065 -0.19 0.993 -2.969 3.695 12.634
2.275412375000002 -0.053 -0.151 0.971 -2.45 0.412 13.412
2.2875969590000125 -0.04 -0.167 0.963 -2.855 1.221 13.183
2.29468804199999 -0.031 -0.161 0.97 -2.824 0.748 12.809
2.306847916999999 -0.044 -0.152 0.967 -2.87 -1.366 12.733
2.3140720419999923 -0.016 -0.158 0.962 -2.466 -5.008 11.809
2.326016624999994 0.002 -0.153 0.965 -2.725 -9.008 9.527
2.3333067499999913 0.013 -0.154 0.957 -4.466 -10.214 7.885
2.345281459000006 0.025 -0.162 0.946 -4.847 -7.092 5.824
2.3573448749999955 -0.008 -0.182 0.954 -4.992 -0.389 6.084
2.3645985839999923 -0.063 -0.18 0.974 -4.42 2.076 6.817
2.3766484170000126 -0.084 -0.172 1.019 -3.0 -3.359 7.412
2.3839800419999904 -0.064 -0.19 1.002 -1.237 -9.351 5.931
2.395987292000001 -0.041 -0.17 0.959 -2.137 -8.855 4.58
2.4031861249999906 -0.019 -0.148 0.964 -3.137 -3.534 3.557
2.4153040420000025 -0.014 -0.151 0.962 -3.565 0.519 2.328
2.42751370900001 -0.05 -0.147 0.964 -3.382 2.153 1.534
2.4346678340000096 -0.082 -0.14 0.965 -4.069 1.527 1.366
2.446673333999996 -0.1 -0.162 0.981 -3.603 -0.985 1.137
2.453524250000015 -0.12 -0.183 0.977 -3.718 -2.618 1.481
2.4659828339999876 -0.136 -0.166 0.984 -3.939 -2.748 2.786
2.4733278749999954 -0.135 -0.144 1.0 -3.344 -3.969 4.191
2.485328250000009 -0.112 -0.176 1.03 -2.084 -7.763 3.015
2.497116500000004 -0.105 -0.177 1.03 -1.427 -10.679 1.389
