Time AX AY AZ GX GY GZ
0.01460016599999392 0.52 -0.005 0.886 2.641 -7.107 3.557
0.02693679099999713 0.546 -0.006 0.86 0.489 -1.534 3.527
0.03911216599999534 0.568 -0.005 0.873 -1.435 4.137 2.412
0.04646016599998859 0.537 0.004 0.878 -2.809 7.786 1.611
0.05897424999999146 0.531 -0.016 0.876 -3.076 9.855 0.824
0.06611991599999101 0.527 -0.034 0.891 -2.702 8.092 -0.908
0.07821054099999003 0.495 -0.015 0.895 -2.237 5.496 -1.733
0.08523358299999018 0.483 -0.013 0.882 -1.71 3.924 -0.756
0.09773683299999902 0.485 -0.022 0.888 -0.473 2.588 0.282
0.10516312499999003 0.487 -0.015 0.89 -0.298 2.924 1.336
0.11737695799999415 0.492 0.007 0.896 -1.084 2.13 2.511
0.12495041599999013 0.492 0.002 0.899 -2.527 1.794 3.076
0.13689754099999618 0.512 -0.045 0.937 -1.656 1.13 2.511
0.1491396659999964 0.522 -0.067 0.94 1.122 0.099 0.595
0.15666137499999877 0.518 -0.051 0.922 4.183 0.901 -0.122
0.16890870799998936 0.534 -0.029 0.916 5.939 1.534 0.443
0.1760974159999904 0.558 -0.014 0.882 5.198 4.885 -0.908
0.18847766599999716 0.557 -0.027 0.879 4.748 13.962 -2.275
0.19554991599999028 0.52 -0.004 0.874 2.916 21.45 -1.763
0.20773141600000145 0.508 -0.02 0.913 3.336 25.115 -1.809
0.21483737499998767 0.446 -0.031 0.907 5.427 26.076 -0.45
0.22698687499999437 0.428 -0.052 0.915 9.008 22.168 2.229
0.23286699999999882 0.462 -0.02 0.915 10.435 10.076 3.885
0.24651799999999469 0.564 -0.016 0.882 9.824 3.916 0.756
0.2589204579999915 0.626 -0.009 0.809 6.985 12.084 -4.649
0.26611387499998784 0.612 0.007 0.797 2.206 30.733 -7.588
0.2782404159999885 0.512 0.006 0.832 -0.359 49.885 -6.466
0.2855847079999876 0.367 -0.034 0.918 -1.656 57.45 -1.458
0.29762308299999063 0.35 -0.056 1.015 0.069 41.229 -0.74
0.3049719159999995 0.467 -0.036 0.984 6.206 16.13 -1.87
0.31718745799999226 0.572 0.027 0.802 7.176 13.038 -1.74
0.32913733299999137 0.632 0.031 0.686 -0.221 41.328 -6.458
0.3364449580000013 0.635 0.02 0.706 -10.344 73.458 -14.779
0.34821554099998764 0.593 0.016 0.785 -18.298 90.237 -20.237
0.3553679999999986 0.44 0.012 0.844 -20.924 102.687 -20.008
0.36715774999998985 0.247 -0.048 0.919 -20.557 107.29 -14.756
0.37915012499999534 0.048 -0.076 1.072 -17.687 94.672 -6.481
0.38650304099999744 0.088 -0.121 1.255 -5.229 44.557 -3.26
0.3985360829999962 0.263 -0.086 1.18 7.763 -10.542 -3.931
0.40556529099998784 0.482 -0.03 0.912 11.038 -18.229 -4.985
0.41762104099998965 0.661 0.013 0.663 4.42 26.137 -10.13
0.4249303749999882 0.717 0.054 0.614 -9.382 84.916 -18.931
0.4367142499999943 0.66 0.086 0.659 -25.58 133.954 -28.87
0.44869258299999615 0.378 0.049 0.724 -34.771 174.412 -31.351
0.4555399579999886 0.019 -0.035 0.926 -37.794 190.565 -19.504
0.467365290999993 -0.101 -0.117 1.234 -28.954 153.099 -5.481
0.4748425829999974 -0.01 -0.137 1.401 -7.931 70.641 -9.519
0.48673041600000033 0.116 -0.065 1.228 9.466 -0.489 -11.969
0.4984687500000007 0.345 0.007 0.935 12.023 -14.305 -14.435
0.5057679999999891 0.498 0.06 0.699 1.489 24.672 -19.603
0.5178233329999955 0.521 0.087 0.617 -16.359 87.076 -26.084
0.5248827499999891 0.417 0.068 0.693 -33.466 141.573 -30.595
0.5368223329999893 0.228 -0.001 0.833 -42.099 175.58 -30.71
0.5486375830000014 -0.219 -0.064 0.977 -39.336 193.473 -12.931
0.5553748329999877 -0.401 -0.199 1.319 -24.328 159.13 11.191
0.5673454999999876 -0.359 -0.258 1.556 2.305 60.588 11.832
0.5746715829999971 -0.219 -0.169 1.466 29.244 -53.504 3.244
0.586447832999994 0.107 -0.065 1.133 40.55 -108.664 3.244
0.5987228329999965 0.38 0.027 0.765 34.71 -82.153 1.435
0.605990124999991 0.516 0.076 0.545 13.496 -1.626 -2.733
0.6180534579999915 0.524 0.067 0.589 -8.779 85.252 -10.832
0.6251589999999965 0.447 0.019 0.766 -22.656 138.573 -21.618
0.6369301249999921 0.327 -0.005 0.919 -28.718 156.0 -30.481
0.6487270410000008 0.231 -0.025 0.947 -27.565 160.298 -35.908
0.6555244579999879 0.076 -0.019 0.892 -26.855 170.832 -32.176
0.6673530409999984 -0.038 -0.041 0.869 -27.053 187.153 -23.931
0.6792604159999911 -0.2 -0.062 0.952 -25.489 192.45 -18.58
0.6859929579999999 -0.332 -0.085 1.108 -19.542 167.786 -13.588
0.6978181659999905 -0.411 -0.108 1.207 -12.046 114.824 -9.023
0.7048042499999951 -0.354 -0.113 1.243 -2.87 57.168 -8.687
0.7169279159999888 -0.214 -0.109 1.162 5.45 21.168 -6.122
0.7289164999999969 -0.024 -0.096 1.016 10.656 20.313 -6.458
0.7359616250000016 0.18 -0.073 0.878 11.802 42.626 -14.45
0.747977249999991 0.323 -0.025 0.786 6.595 79.496 -28.489
0.7554279159999879 0.285 0.026 0.673 -4.366 130.435 -41.58
0.7671666250000015 0.035 0.065 0.588 -22.649 196.855 -35.427
0.7789421659999931 -0.187 -0.001 0.677 -38.756 250.13 -25.55
0.7857399159999972 -0.435 -0.099 0.923 -40.313 250.13 -18.458
0.7976586659999896 -0.616 -0.183 1.228 -27.519 243.298 -13.603
0.8035704999999922 -0.672 -0.189 1.302 -6.863 155.641 -13.809
0.8164758329999984 -0.613 -0.143 1.167 10.015 73.954 -16.038
0.8283072079999982 -0.474 -0.096 0.925 17.282 36.832 -13.863
0.835360124999994 -0.349 -0.08 0.757 14.985 40.435 -13.191
0.8473999579999969 -0.28 -0.063 0.716 7.229 65.542 -13.656
0.859136124999992 -0.268 -0.062 0.744 -0.748 93.557 -11.969
0.866324249999991 -0.249 -0.084 0.779 -5.809 120.252 -10.832
0.8780642499999942 -0.319 -0.103 0.79 -7.855 148.16 -14.183
0.8848851659999895 -0.419 -0.115 0.826 -7.305 161.908 -18.13
0.8966382079999988 -0.53 -0.091 0.886 -3.855 155.771 -15.626
0.9087019159999983 -0.571 -0.073 0.91 2.695 133.664 -13.031
0.9157753329999991 -0.602 -0.066 0.872 6.26 109.809 -10.718
0.9277857909999909 -0.597 -0.07 0.817 6.878 93.954 -9.015
0.9348179579999965 -0.399 -0.117 0.783 4.008 83.336 -15.275
0.9466368329999995 -0.257 -0.063 0.645 -0.626 92.779 -29.656
0.9584703749999903 -0.335 -0.035 0.483 -12.679 142.321 -36.176
0.9653672079999893 -0.495 -0.061 0.473 -27.046 206.527 -35.122
0.9772025409999969 -0.698 -0.115 0.639 -33.374 243.87 -27.901
0.988966457999993 -0.866 -0.178 0.854 -24.878 233.076 -19.687
0.9956204579999905 -0.937 -0.175 0.948 -8.008 181.237 -13.466
1.0077246660000014 -0.92 -0.116 0.86 7.214 124.29 -7.229
1.0145661249999876 -0.844 -0.104 0.67 13.397 91.603 -6.244
1.0267819159999902 -0.758 -0.095 0.559 10.641 82.702 -8.916
1.0388527499999896 -0.673 -0.088 0.486 1.55 85.84 -14.198
1.0454717499999902 -0.648 -0.089 0.448 -8.313 102.527 -18.267
1.0574094159999987 -0.692 -0.118 0.471 -16.115 131.893 -20.137
1.063007749999997 -0.808 -0.12 0.526 -19.794 152.389 -19.313
1.0759202909999885 -0.889 -0.139 0.617 -15.924 152.527 -15.237
1.0879701249999982 -0.954 -0.186 0.671 -6.908 132.458 -13.13
1.094656165999993 -0.902 -0.173 0.649 -0.076 102.061 -13.779
1.1067153749999932 -0.783 -0.116 0.511 2.42 90.26 -16.679
1.1186477499999938 -0.794 -0.098 0.347 -3.496 108.878 -15.405
1.1254162500000007 -0.819 -0.126 0.336 -11.672 138.084 -13.901
1.1371781249999913 -0.914 -0.148 0.442 -16.13 148.565 -13.557
1.1491257079999997 -1.003 -0.15 0.507 -15.58 136.069 -10.206
1.1559230829999905 -0.964 -0.188 0.501 -10.794 116.893 -8.802
1.1678202499999912 -0.929 -0.164 0.402 -9.641 109.756 -10.122
1.174283124999988 -0.824 -0.156 0.333 -9.42 117.26 -14.542
1.1864512909999974 -0.809 -0.177 0.25 -10.0 135.985 -18.214
1.198427124999995 -0.882 -0.14 0.226 -14.115 155.458 -17.015
1.2048705409999911 -0.994 -0.135 0.231 -17.023 165.687 -11.45
1.2170456249999972 -0.984 -0.158 0.305 -18.496 152.611 -11.237
1.2285691249999928 -1.033 -0.165 0.284 -15.878 132.626 -10.176
1.2354614159999926 -1.063 -0.199 0.235 -15.023 120.893 -7.779
1.2474014159999882 -1.052 -0.227 0.211 -13.298 114.183 -7.092
1.2529704159999966 -0.914 -0.244 0.237 -10.397 103.855 -12.168
1.2659095829999956 -0.837 -0.194 0.099 -9.786 104.786 -15.626
1.2778885829999922 -0.78 -0.187 -0.007 -15.58 136.237 -20.183
1.284378457999992 -0.811 -0.147 -0.055 -22.962 173.641 -22.557
1.2960185409999951 -0.963 -0.123 -0.018 -27.42 201.145 -16.931
1.3083468330000017 -1.105 -0.182 0.083 -26.137 203.153 -9.443
1.3149621249999939 -1.203 -0.244 0.182 -19.168 173.863 -5.901
1.3268972499999876 -1.157 -0.249 0.202 -9.679 124.29 -5.328
1.3391797499999996 -1.022 -0.247 0.058 -1.321 89.076 -8.725
1.345664207999988 -0.929 -0.23 -0.132 -4.008 92.137 -10.702
1.357669125000001 -0.806 -0.195 -0.217 -10.695 117.969 -16.153
1.3642134579999947 -0.839 -0.153 -0.262 -18.122 148.466 -17.191
1.3760478330000012 -0.948 -0.115 -0.228 -27.55 170.29 -11.74
1.388000582999993 -1.059 -0.12 -0.147 -33.649 173.748 -5.878
1.3944725829999953 -1.123 -0.198 -0.045 -30.252 151.634 -2.489
1.406363290999991 -1.044 -0.296 0.02 -18.42 112.473 -4.221
1.4184934159999898 -0.91 -0.309 -0.078 -5.656 80.031 -10.473
1.4251557079999913 -0.893 -0.249 -0.288 -2.145 80.908 -13.504
1.4369368750000007 -0.888 -0.234 -0.407 -8.771 105.802 -13.351
1.4488824999999963 -0.864 -0.213 -0.406 -16.336 131.901 -14.702
1.4554173749999961 -0.885 -0.156 -0.343 -21.893 141.878 -15.084
1.4671607909999977 -0.896 -0.156 -0.31 -25.26 140.87 -16.374
1.4789000829999992 -0.965 -0.151 -0.329 -28.183 132.45 -15.336
1.4855808330000002 -1.013 -0.194 -0.345 -31.031 124.336 -10.618
1.4975292499999995 -1.007 -0.286 -0.308 -24.763 119.13 -7.985
1.5091227499999889 -1.004 -0.364 -0.306 -15.435 108.382 -10.038
1.5160262909999886 -0.947 -0.258 -0.299 -8.481 87.015 -7.71
1.5283539160000004 -0.848 -0.218 -0.409 -5.122 78.794 -6.435
1.535346582999992 -0.766 -0.192 -0.49 -7.122 88.824 -9.931
1.547030540999998 -0.787 -0.158 -0.533 -12.527 111.427 -10.908
1.558782082999997 -0.83 -0.163 -0.488 -15.305 125.74 -7.718
1.5655858749999965 -0.857 -0.21 -0.438 -14.931 122.473 -4.87
1.5774026249999906 -0.842 -0.241 -0.423 -12.008 106.282 -5.42
1.5891562909999948 -0.819 -0.283 -0.469 -6.641 93.58 -7.427
1.5963094999999896 -0.809 -0.297 -0.555 -5.832 90.809 -7.588
1.6079833329999929 -0.765 -0.285 -0.602 -7.168 96.351 -9.481
1.6147517909999891 -0.734 -0.227 -0.617 -13.168 102.069 -11.725
1.6266610829999877 -0.709 -0.171 -0.604 -18.511 112.405 -12.489
1.6384304159999914 -0.725 -0.163 -0.579 -20.618 122.977 -12.542
1.6451437499999884 -0.746 -0.143 -0.556 -21.588 122.992 -11.153
1.6567584999999951 -0.744 -0.161 -0.538 -19.504 112.359 -10.244
1.6685497499999968 -0.789 -0.235 -0.567 -13.656 102.962 -6.466
1.6756076249999978 -0.791 -0.316 -0.622 -7.74 101.458 -3.588
1.6873784160000014 -0.741 -0.298 -0.636 -4.351 93.137 -3.641
1.6992156660000006 -0.71 -0.256 -0.728 -2.878 89.847 -2.824
1.7062915409999988 -0.669 -0.235 -0.789 -8.382 95.71 -2.748
1.7181472500000012 -0.606 -0.185 -0.8 -15.237 105.122 -5.183
1.7249754999999993 -0.649 -0.141 -0.765 -20.847 116.595 -4.313
1.7367615 -0.633 -0.171 -0.782 -24.244 121.618 -1.374
1.7486046659999914 -0.63 -0.2 -0.749 -24.87 119.13 0.023
1.75539049999999 -0.597 -0.25 -0.718 -22.893 111.015 0.55
1.7672486249999935 -0.544 -0.31 -0.744 -17.481 101.061 -3.947
1.7790492079999893 -0.574 -0.305 -0.811 -11.802 99.405 -7.679
1.7857522500000016 -0.623 -0.237 -0.856 -11.649 102.168 -4.58
1.7974375409999936 -0.571 -0.194 -0.832 -13.725 101.748 -5.977
1.8041012079999916 -0.575 -0.152 -0.826 -16.053 97.817 -6.71
1.8161012909999954 -0.547 -0.15 -0.811 -17.649 91.405 -4.893
1.8281568749999906 -0.515 -0.162 -0.8 -18.527 84.084 -5.756
1.834852583 -0.552 -0.135 -0.816 -19.763 77.924 -5.229
1.8469884579999984 -0.537 -0.16 -0.725 -16.985 67.435 -2.618
1.8589960409999975 -0.632 -0.15 -0.76 -10.237 36.763 1.527
1.8656225829999897 -0.638 -0.208 -0.844 -3.282 29.725 9.0
1.8779019579999954 -0.589 -0.27 -0.911 -0.679 28.305 6.817
1.8846402499999897 -0.525 -0.218 -0.888 -2.023 23.595 3.092
1.8969661659999986 -0.492 -0.157 -0.87 -2.603 14.634 -0.435
1.908938374999991 -0.548 -0.123 -0.899 -4.344 13.366 0.534
1.9160295829999967 -0.509 -0.152 -0.908 -7.496 18.397 1.985
1.928036082999995 -0.425 -0.156 -0.954 -13.412 27.275 -1.481
1.9348659159999926 -0.438 -0.097 -1.005 -20.198 44.55 1.832
1.9468200829999915 -0.472 -0.123 -0.994 -27.275 68.145 9.634
1.9588151659999937 -0.499 -0.183 -0.934 -28.634 81.87 15.16
1.9658051249999886 -0.454 -0.238 -0.822 -23.137 86.336 15.366
1.977743624999988 -0.346 -0.327 -0.769 -13.076 74.947 3.702
1.9847199579999995 -0.35 -0.266 -0.782 -3.374 57.305 -8.084
1.9967911659999942 -0.453 -0.134 -0.859 0.58 47.198 -8.115
2.0084705829999905 -0.485 -0.091 -0.89 -2.359 45.359 -4.664
2.0155854159999933 -0.445 -0.096 -0.864 -6.336 44.84 -2.351
2.0277085409999955 -0.407 -0.12 -0.857 -5.443 42.145 0.878
2.0347679159999927 -0.396 -0.138 -0.908 -1.908 42.771 3.74
2.0467886659999976 -0.379 -0.167 -0.945 1.634 44.435 4.87
2.0587507909999943 -0.389 -0.179 -0.973 5.573 45.496 6.359
2.0660274579999935 -0.399 -0.188 -1.03 6.718 47.725 8.427
2.078142958000001 -0.414 -0.189 -1.042 4.198 49.916 7.786
2.085152749999992 -0.379 -0.153 -0.975 -2.229 44.954 2.992
2.0969661249999945 -0.364 -0.121 -0.921 -6.206 32.519 -1.962
2.109203291 -0.352 -0.135 -0.892 -6.863 17.107 -3.16
2.115977000000001 -0.274 -0.145 -0.899 -4.0 2.237 -4.916
2.128084040999994 -0.279 -0.131 -0.987 -1.664 1.634 -4.763
2.135146082999995 -0.338 -0.135 -1.065 -3.55 17.817 -1.0
2.1469438329999946 -0.38 -0.147 -1.048 -6.817 37.252 2.527
2.1590403749999894 -0.42 -0.117 -0.984 -9.626 49.519 6.321
2.1661761249999927 -0.42 -0.129 -0.879 -9.328 49.84 10.053
2.1780771659999942 -0.35 -0.216 -0.797 -2.794 35.237 6.359
2.1848492079999886 -0.325 -0.221 -0.822 6.71 13.626 2.954
2.1973042909999947 -0.299 -0.184 -0.91 11.924 -3.511 -0.427
2.208964624999993 -0.276 -0.18 -0.99 11.695 -11.397 -4.901
2.21579604099999 -0.271 -0.205 -1.058 9.573 -8.397 -7.893
2.2280468329999934 -0.314 -0.191 -1.122 3.832 5.176 -5.031
2.2352424999999982 -0.353 -0.127 -1.112 -5.832 21.672 -1.137
2.24705741599999 -0.343 -0.07 -1.018 -15.977 31.405 1.061
2.2591309159999895 -0.323 -0.111 -0.905 -17.763 32.985 2.298
2.2661574159999986 -0.328 -0.183 -0.867 -13.046 29.443 4.427
2.277886541000001 -0.292 -0.208 -0.882 -6.611 23.71 2.511
2.2854027499999887 -0.307 -0.211 -0.899 1.191 18.473 -0.244
2.2970297079999966 -0.32 -0.228 -0.923 6.397 11.305 -2.389
2.3090477909999976 -0.319 -0.24 -0.937 10.076 1.542 -6.412
2.315763665999995 -0.283 -0.183 -0.962 11.053 -13.916 -10.595
2.3280402909999935 -0.29 -0.091 -1.021 6.687 -25.947 -9.527
2.334780957999996 -0.319 -0.06 -1.099 -2.42 -23.55 -2.168
2.3468342909999933 -0.322 -0.124 -1.098 -14.275 -7.832 0.985
2.3586706659999948 -0.311 -0.163 -1.004 -20.771 9.45 0.443
2.3657145409999885 -0.312 -0.195 -0.915 -17.252 16.519 -0.191
2.3775109159999914 -0.291 -0.216 -0.85 -7.412 12.832 -2.198
2.3848089579999936 -0.329 -0.193 -0.858 4.107 3.305 -3.649
2.396683082999999 -0.38 -0.167 -0.913 11.573 -5.458 -0.168
2.408361708000001 -0.356 -0.128 -0.955 10.282 -15.176 -0.527
2.4154844579999946 -0.374 -0.031 -0.991 1.885 -20.275 -1.466
2.4275055829999985 -0.377 -0.064 -1.003 -6.718 -17.802 3.229
2.439314582999998 -0.319 -0.177 -1.0 -9.099 -11.794 8.412
2.4464440409999924 -0.278 -0.217 -0.984 -7.13 -3.542 8.878
2.4584495829999895 -0.287 -0.226 -0.967 -3.069 6.359 7.267
2.465667874999994 -0.308 -0.259 -0.936 3.374 8.565 1.229
2.4777591249999915 -0.312 -0.22 -0.898 12.305 -1.153 -2.237
2.483750915999991 -0.308 -0.143 -0.897 17.947 -17.29 -3.0
2.496670624999993 -0.358 -0.031 -1.007 6.374 -18.588 -0.748
2.5082367499999947 -0.341 0.009 -0.961 -6.878 -12.863 0.443
