Time AX AY AZ GX GY GZ
0.012840957999998182 0.259 -0.046 0.918 -0.359 3.237 -3.863
0.018625500000013062 0.241 -0.035 0.94 -1.664 5.351 -5.046
0.032257375000000366 0.184 -0.029 0.981 -0.214 3.718 -3.519
0.04447712499998602 0.184 -0.05 1.019 4.832 -1.634 -3.069
0.05155662499998925 0.185 -0.037 0.994 6.191 -3.863 -4.328
0.0637993750000021 0.179 -0.02 0.956 4.603 -1.069 -4.756
0.07115479199998731 0.188 -0.018 0.952 1.58 2.328 -2.702
0.08327695799999901 0.213 -0.013 0.908 -2.145 6.328 -1.656
0.09040329199999064 0.185 -0.021 0.906 -5.023 14.443 -0.244
0.10278487499999756 0.153 -0.051 0.993 -3.603 13.168 0.977
0.11495058299999528 0.142 -0.073 1.046 2.038 4.305 1.221
0.1222573329999932 0.156 -0.068 1.067 7.382 -3.893 -0.031
0.13429229199999781 0.201 -0.035 1.024 10.122 -7.237 -0.802
0.14159208300000614 0.252 -0.007 0.957 8.473 0.954 -2.107
0.15395537500000955 0.233 -0.018 0.946 5.473 15.237 -1.672
0.16122087499999793 0.204 -0.032 1.011 3.481 20.015 1.947
0.17345324999999434 0.179 -0.003 0.999 1.786 16.55 3.053
0.1807288329999892 0.227 0.008 0.982 -1.878 16.565 3.351
0.19295591700000614 0.223 0.002 0.967 -5.901 23.496 2.786
0.2049900419999915 0.193 -0.014 1.057 -5.305 26.389 2.863
0.21220504199999368 0.202 -0.033 1.104 0.13 20.191 2.252
0.22459679199999982 0.263 -0.018 1.029 5.427 19.099 0.221
0.23179275000001098 0.308 0.017 0.946 7.794 27.664 -0.26
0.24407008299999688 0.36 0.045 0.88 4.397 41.84 -1.611
0.2513772499999902 0.369 0.051 0.852 -3.237 58.985 -7.557
0.26343691700000704 0.303 0.024 0.887 -11.015 74.954 -10.221
0.2705306670000027 0.248 0.003 0.945 -16.55 83.534 -14.962
0.28224679199999514 0.102 -0.036 1.019 -18.328 84.244 -14.756
0.29440450000001306 0.077 -0.068 1.092 -14.496 75.069 -14.206
0.30130024999999705 0.143 -0.062 1.03 -8.725 70.466 -14.282
0.31341937499999517 0.225 -0.04 0.887 -6.115 88.031 -13.824
0.3194197079999981 0.278 -0.012 0.789 -10.183 122.679 -12.969
0.3323111249999897 0.222 0.01 0.783 -20.756 155.191 -16.634
0.3440648749999866 0.129 0.014 0.824 -31.847 175.237 -20.412
0.3508997079999858 -0.015 -0.027 0.868 -40.397 189.374 -20.794
0.36272995799998853 -0.164 -0.101 1.008 -40.863 190.84 -19.458
0.37457224999999994 -0.424 -0.139 1.165 -32.779 175.405 -10.534
0.3813971669999887 -0.458 -0.167 1.341 -16.206 134.076 -3.481
0.3934002919999955 -0.366 -0.163 1.314 5.13 79.702 -2.137
0.40072162499998853 -0.204 -0.092 1.091 19.351 46.458 -0.824
0.41247300000000564 -0.044 -0.02 0.839 17.702 55.969 -3.237
0.4247496669999862 0.035 0.014 0.739 5.687 85.305 -8.29
0.43185458299998913 -0.012 0.023 0.732 -11.176 117.985 -12.496
0.44343637500000455 -0.135 -0.004 0.81 -25.412 140.878 -15.435
0.4504774170000019 -0.278 -0.052 0.917 -32.435 151.626 -14.061
0.4622994579999897 -0.409 -0.084 1.004 -32.496 150.137 -8.985
0.474090082999993 -0.466 -0.121 1.074 -25.939 139.58 -1.916
0.48114758299999494 -0.458 -0.163 1.125 -14.023 122.649 0.832
0.4928925000000106 -0.466 -0.12 1.102 -2.863 100.687 2.427
0.49875866700000415 -0.401 -0.096 1.046 5.092 83.74 3.916
0.5120368750000068 -0.232 -0.085 0.962 9.115 69.779 -3.206
0.5243187080000098 -0.111 0.019 0.741 0.595 77.878 -14.504
0.5313836670000001 -0.05 0.055 0.531 -19.893 120.748 -20.725
0.5431588330000068 -0.196 0.018 0.458 -42.435 187.191 -19.0
0.5549982919999934 -0.472 -0.092 0.667 -55.008 237.275 -14.023
0.5618624999999895 -0.75 -0.176 1.004 -49.443 232.198 -7.779
0.5736164999999858 -0.806 -0.218 1.202 -30.634 182.473 -4.13
0.5806641249999984 -0.748 -0.171 1.213 -5.939 117.878 -3.206
0.5927519999999902 -0.584 -0.129 0.982 9.557 77.023 -1.618
0.604759874999985 -0.465 -0.085 0.758 11.931 71.046 -5.084
0.6117707500000051 -0.366 -0.054 0.617 4.359 86.237 -11.427
0.6235912919999862 -0.38 -0.032 0.527 -7.58 113.023 -15.382
0.630814958000002 -0.526 -0.059 0.502 -21.557 148.145 -14.878
0.6422297500000127 -0.725 -0.121 0.611 -30.176 172.809 -10.534
0.6540525419999881 -0.897 -0.18 0.805 -27.015 167.321 -3.878
0.6611415419999958 -0.96 -0.222 0.942 -15.29 132.718 3.397
0.6732795000000067 -0.896 -0.183 0.955 -2.733 88.718 9.115
0.6804589580000027 -0.74 -0.156 0.84 5.115 58.443 8.374
0.6927029169999912 -0.567 -0.114 0.679 6.168 54.321 4.672
0.7048259169999938 -0.496 -0.077 0.537 1.076 74.206 0.458
0.7118569170000058 -0.466 -0.065 0.507 -7.45 98.618 -8.626
0.7236350420000122 -0.556 -0.021 0.469 -17.031 122.237 -10.588
0.7304291250000006 -0.689 -0.097 0.495 -25.939 142.954 -11.511
0.74226462499999 -0.837 -0.138 0.597 -29.802 147.481 -10.466
0.7540501670000026 -0.928 -0.155 0.737 -25.618 127.519 -5.664
0.761117167000009 -0.932 -0.185 0.774 -15.847 98.588 -1.504
0.7731472499999938 -0.873 -0.2 0.722 -6.718 74.794 1.412
0.7805329580000091 -0.75 -0.147 0.637 -0.298 65.237 4.305
0.7924769169999877 -0.609 -0.151 0.504 1.618 79.107 3.557
0.8043231670000068 -0.55 -0.117 0.404 -2.466 107.985 -2.863
0.8114002920000019 -0.597 -0.051 0.324 -13.817 143.641 -9.084
0.8232769999999903 -0.71 -0.077 0.353 -25.863 170.336 -14.29
0.8347473750000063 -0.8 -0.11 0.448 -32.366 177.176 -17.756
0.841855833000011 -0.889 -0.125 0.494 -32.802 170.061 -16.985
0.853387749999996 -0.938 -0.161 0.512 -29.618 161.145 -14.26
0.8605001249999873 -0.984 -0.202 0.496 -23.489 153.863 -8.305
0.8722963330000084 -0.968 -0.211 0.5 -13.473 142.687 -7.252
0.8840646669999899 -0.912 -0.159 0.41 -7.542 129.214 -5.099
0.8911366250000015 -0.799 -0.137 0.26 -8.863 128.733 -7.313
0.9030184169999984 -0.777 -0.139 0.121 -17.061 144.756 -19.153
0.9148069169999928 -0.825 -0.117 0.131 -26.191 164.802 -21.511
0.9215764580000041 -0.933 -0.164 0.205 -29.389 175.198 -19.237
0.9334300829999904 -1.022 -0.215 0.293 -25.771 164.679 -18.656
0.9449562920000005 -1.0 -0.197 0.32 -18.771 135.58 -17.29
0.9520180419999917 -0.906 -0.188 0.182 -14.847 114.237 -17.695
0.9636125419999928 -0.856 -0.182 0.018 -18.145 121.626 -18.29
0.9705294169999945 -0.849 -0.185 -0.01 -25.473 144.985 -18.397
0.9824542499999893 -0.907 -0.236 0.041 -28.26 165.817 -19.107
0.9940845829999887 -0.984 -0.249 0.113 -25.496 166.74 -19.786
1.0009359169999925 -1.018 -0.182 0.133 -20.687 150.939 -17.664
1.0127539169999977 -1.059 -0.189 0.081 -16.405 135.122 -13.855
1.0243172499999957 -1.048 -0.226 0.06 -13.061 120.298 -11.672
1.0313663750000046 -1.025 -0.191 0.031 -11.855 105.695 -9.237
1.043204916999997 -0.942 -0.19 -0.028 -12.87 95.916 -9.87
1.0547469169999886 -0.883 -0.225 -0.11 -15.229 102.397 -11.908
1.0615927080000063 -0.9 -0.265 -0.172 -17.71 119.695 -15.069
1.0734479580000027 -0.957 -0.219 -0.15 -20.137 130.618 -16.725
1.084978250000006 -0.94 -0.149 -0.126 -20.145 127.359 -16.756
1.0918145420000087 -0.975 -0.189 -0.16 -19.733 127.244 -16.885
1.1034329579999849 -1.017 -0.187 -0.108 -18.748 122.901 -14.847
1.1091945830000043 -1.055 -0.192 -0.065 -14.206 109.573 -11.221
1.122110499999991 -1.044 -0.206 -0.09 -9.023 92.076 -6.718
1.1339344579999988 -0.938 -0.214 -0.166 -7.847 82.87 -6.427
1.1406633750000026 -0.786 -0.23 -0.281 -9.672 91.351 -10.71
1.152384000000012 -0.804 -0.278 -0.413 -13.504 121.496 -17.382
1.1642622500000073 -0.945 -0.273 -0.439 -21.137 155.931 -18.427
1.1707647499999894 -1.055 -0.217 -0.298 -25.115 162.74 -12.656
1.1827593749999892 -1.05 -0.24 -0.206 -20.267 144.702 -10.267
1.194446499999998 -1.031 -0.251 -0.248 -14.145 125.382 -8.336
1.2012052080000046 -0.959 -0.241 -0.31 -10.031 117.336 -6.359
1.2131921669999883 -0.936 -0.221 -0.36 -8.939 117.588 -3.321
1.2249433750000094 -0.889 -0.221 -0.418 -10.779 116.58 -1.45
1.2316982920000044 -0.851 -0.2 -0.458 -13.542 119.824 0.107
1.2438125829999933 -0.833 -0.302 -0.504 -13.817 130.649 -4.13
1.2502691249999884 -0.85 -0.275 -0.472 -13.695 129.664 -8.779
1.2622477079999896 -0.857 -0.19 -0.483 -13.137 118.046 -7.176
1.2740890419999857 -0.819 -0.254 -0.524 -13.87 112.313 -8.847
1.2806244170000127 -0.773 -0.275 -0.534 -15.359 112.611 -12.061
1.292558624999998 -0.742 -0.278 -0.556 -14.924 118.069 -11.893
1.3042556670000067 -0.744 -0.261 -0.582 -14.901 124.794 -8.954
1.3113857079999889 -0.757 -0.229 -0.636 -17.687 131.595 -3.931
1.3231225829999858 -0.743 -0.194 -0.653 -24.634 135.206 -0.458
1.334711083000002 -0.725 -0.19 -0.657 -30.74 136.046 0.183
1.3418247500000007 -0.732 -0.309 -0.621 -30.489 139.267 -4.084
1.3534080420000123 -0.753 -0.332 -0.484 -24.832 127.733 -12.244
1.359291667000008 -0.749 -0.224 -0.445 -12.641 98.534 -11.771
1.3723580420000019 -0.675 -0.226 -0.539 -1.046 78.42 -9.947
1.384082707999994 -0.658 -0.237 -0.676 1.473 80.511 -11.351
1.3911174579999965 -0.665 -0.181 -0.698 -0.023 93.107 -11.092
1.4030525420000117 -0.673 -0.179 -0.726 -1.985 102.756 -6.878
1.414778708 -0.699 -0.185 -0.748 -4.046 106.58 -3.824
1.4215866669999855 -0.73 -0.162 -0.786 -8.359 106.992 -0.13
1.4333572500000002 -0.721 -0.126 -0.814 -14.504 101.229 5.802
1.4401867919999916 -0.667 -0.217 -0.839 -18.344 101.427 7.718
1.45235979200001 -0.654 -0.311 -0.823 -17.916 102.237 3.145
1.4640818329999945 -0.623 -0.339 -0.748 -12.328 100.87 -0.71
1.47119112499999 -0.606 -0.267 -0.742 -5.595 91.069 -1.947
1.483090374999989 -0.61 -0.176 -0.824 -2.328 84.122 0.641
1.4951063329999954 -0.589 -0.166 -0.866 -1.832 87.42 4.168
1.5020418750000033 -0.578 -0.188 -0.91 -4.885 95.115 4.718
1.513975208000005 -0.53 -0.172 -0.905 -7.809 96.198 3.137
1.5208480000000009 -0.565 -0.158 -0.943 -11.58 97.26 4.672
1.5330011249999984 -0.615 -0.17 -1.0 -19.076 103.115 8.878
1.544778000000008 -0.583 -0.218 -0.975 -23.565 107.534 13.489
1.5517579170000033 -0.553 -0.247 -0.921 -22.58 104.74 18.55
1.563416042 -0.485 -0.218 -0.87 -19.901 94.489 21.565
1.5704324170000064 -0.436 -0.171 -0.872 -15.756 87.42 21.405
1.5823127499999998 -0.416 -0.192 -0.872 -10.313 86.275 20.924
1.5940605000000119 -0.396 -0.19 -0.878 -6.557 83.573 19.916
1.6011790830000052 -0.369 -0.184 -0.898 -5.061 78.198 14.397
1.6129622500000096 -0.388 -0.138 -0.948 -7.008 73.809 10.229
1.6250009169999942 -0.407 -0.143 -1.012 -10.473 77.534 8.679
1.6319094170000028 -0.465 -0.164 -1.062 -15.305 86.756 12.489
1.643586207999988 -0.417 -0.203 -1.032 -19.023 91.046 15.664
1.6507002499999999 -0.374 -0.194 -1.004 -19.29 88.137 14.756
1.6625500419999923 -0.374 -0.183 -0.99 -18.847 86.443 15.87
1.6743777080000086 -0.407 -0.137 -0.973 -14.679 88.489 20.427
1.6813556669999912 -0.374 -0.139 -0.904 -8.397 86.038 23.519
1.6931607079999935 -0.333 -0.135 -0.863 -1.992 75.168 21.458
1.7004429579999965 -0.287 -0.12 -0.891 1.947 59.649 17.458
1.7122427500000015 -0.292 -0.106 -0.947 2.206 48.58 14.855
1.7243688329999998 -0.275 -0.146 -1.018 -1.771 49.656 11.695
1.7314320829999872 -0.309 -0.172 -1.06 -7.649 54.664 12.466
1.743184124999999 -0.289 -0.172 -1.053 -15.542 58.305 14.42
1.7550015420000022 -0.256 -0.131 -1.009 -21.298 55.84 16.008
1.7614888749999977 -0.257 -0.176 -0.963 -22.221 55.458 17.947
1.7735250419999886 -0.235 -0.235 -0.939 -18.939 59.321 17.015
1.7807091249999871 -0.228 -0.182 -0.867 -12.427 59.748 14.679
1.7922479579999901 -0.228 -0.14 -0.851 -3.489 55.756 14.84
1.8045678750000036 -0.194 -0.136 -0.878 2.046 51.229 15.42
1.811566292000009 -0.224 -0.122 -0.963 4.588 54.092 13.649
1.8236188330000118 -0.234 -0.102 -0.955 2.511 58.771 15.389
1.8307364579999899 -0.265 -0.096 -1.01 0.733 67.702 19.939
1.8427592500000003 -0.269 -0.12 -1.009 -0.282 73.29 25.71
1.8545014999999978 -0.211 -0.152 -1.009 1.168 73.359 30.786
1.8618938749999927 -0.124 -0.152 -0.98 2.992 64.969 33.053
1.873635374999992 -0.07 -0.142 -1.022 5.435 59.26 33.397
1.88092716700001 -0.061 -0.193 -1.051 5.992 62.42 29.534
1.8926792499999863 -0.044 -0.177 -1.018 5.427 63.382 22.565
1.9047429999999963 -0.023 -0.131 -0.998 6.458 59.092 17.695
1.911817291999995 -0.038 -0.143 -1.015 6.634 52.977 15.069
1.9238468750000095 -0.031 -0.143 -1.062 1.191 47.626 10.076
1.930971707999987 -0.061 -0.096 -1.084 -9.198 45.206 5.519
1.9430905829999858 -0.093 -0.099 -1.034 -16.496 38.221 5.031
1.954727332999994 -0.087 -0.169 -0.969 -17.046 24.061 5.412
1.961764417000012 -0.044 -0.225 -0.958 -12.267 9.611 3.84
1.9738480000000038 0.002 -0.18 -0.956 -7.351 -0.374 2.863
1.9809244170000113 0.014 -0.15 -0.981 -3.595 3.069 2.252
1.9932291249999992 0.015 -0.159 -0.974 -0.435 12.802 -1.939
1.9990720000000124 -0.026 -0.102 -0.921 2.885 15.176 -3.16
2.0122956250000072 -0.054 -0.12 -0.917 5.992 11.863 -2.817
2.0242967920000012 -0.099 -0.1 -0.948 5.206 3.977 -3.183
2.0315764169999966 -0.105 -0.082 -0.982 2.901 -3.718 0.191
2.043654542000013 -0.062 -0.145 -1.026 0.58 -7.221 1.748
2.050655583000008 -0.036 -0.201 -1.056 -0.947 -5.542 2.45
2.0627258750000124 -0.025 -0.207 -1.042 -0.794 -1.71 2.008
2.0748512080000125 -0.048 -0.143 -0.995 0.344 -3.153 1.45
2.0817968329999985 -0.034 -0.133 -0.977 2.679 -8.084 1.45
2.0938662080000086 -0.024 -0.134 -0.984 5.015 -10.405 -1.267
2.1008933749999983 -0.038 -0.138 -1.021 4.794 -9.198 -4.214
2.112941207999995 -0.063 -0.122 -1.041 0.725 -7.206 -7.519
2.1247265419999906 -0.095 -0.082 -1.016 -6.107 -7.611 -7.779
2.131821957999989 -0.127 -0.111 -0.951 -5.878 -9.84 -4.046
2.1435930829999847 -0.087 -0.163 -0.866 0.924 -17.595 -1.641
2.1509679170000027 -0.066 -0.146 -0.899 7.954 -25.214 1.267
2.162710666999999 -0.033 -0.142 -0.963 12.527 -22.076 2.229
2.174778124999989 0.02 -0.156 -0.995 15.061 -16.206 1.115
2.1817784579999966 -0.013 -0.147 -1.053 13.611 -7.122 1.908
2.1939409999999953 -0.068 -0.17 -1.099 8.29 5.061 1.023
2.2010687499999904 -0.129 -0.14 -1.036 2.069 5.458 1.351
2.2131542500000023 -0.108 -0.123 -0.954 -0.305 -8.771 1.382
2.224950624999991 -0.053 -0.146 -0.95 0.908 -25.397 -1.137
2.232008250000007 -0.037 -0.168 -1.042 0.855 -27.16 -3.58
2.244056333000003 -0.061 -0.159 -1.058 0.099 -16.282 -3.145
2.251128666999989 -0.048 -0.152 -0.987 2.122 -10.626 -1.779
2.263001624999987 -0.047 -0.154 -0.959 7.198 -11.053 -1.786
2.2747255419999988 -0.057 -0.161 -0.991 12.191 -11.305 -1.481
2.2818304580000017 -0.079 -0.131 -1.049 11.107 -9.733 -1.229
2.293860499999994 -0.117 -0.123 -1.091 5.321 -3.611 0.763
2.3009575000000098 -0.136 -0.139 -1.082 -2.916 0.504 1.664
2.3129653750000045 -0.112 -0.156 -1.011 -6.29 -4.878 2.779
2.324968250000012 -0.077 -0.165 -0.99 -5.893 -14.695 1.672
2.3317849999999964 -0.051 -0.179 -1.01 -3.885 -19.847 -1.115
2.343690833000011 -0.048 -0.173 -1.027 -2.595 -18.863 -3.206
2.350737333000012 -0.072 -0.188 -1.021 -0.015 -13.679 -3.611
2.3627511249999884 -0.1 -0.188 -0.983 3.763 -9.924 -4.611
2.374523791999991 -0.125 -0.155 -0.985 5.794 -9.672 -3.908
2.381547167000008 -0.128 -0.114 -0.998 5.099 -10.168 -2.679
2.393628250000006 -0.109 -0.075 -1.011 1.221 -10.183 -2.84
2.4007860000000107 -0.124 -0.059 -1.038 -2.542 -6.969 -1.153
2.4128414580000026 -0.171 -0.135 -1.036 -5.198 0.13 0.435
2.424763041999995 -0.199 -0.181 -0.994 -4.702 1.748 1.748
2.4318148330000042 -0.173 -0.181 -0.958 -0.794 -5.947 4.084
2.4438708749999876 -0.142 -0.19 -1.0 3.031 -13.015 4.977
2.4509332080000092 -0.099 -0.178 -1.043 4.641 -12.489 4.672
2.4629431250000096 -0.059 -0.158 -1.046 3.817 -8.542 4.122
2.474990875000003 -0.046 -0.128 -1.042 1.412 -4.435 1.481
2.4820741670000075 -0.076 -0.124 -0.996 -0.481 -3.435 -1.954
2.4939377499999864 -0.115 -0.123 -0.987 -1.405 -7.076 -2.817
2.5006582080000044 -0.128 -0.114 -0.998 -3.137 -11.198 -2.679
