Time AX AY AZ GX GY GZ
0.019821084000000155 0.376 -0.041 0.938 -0.557 3.374 0.885
0.027145709000009788 0.377 -0.044 0.931 1.519 1.885 0.901
0.03928579200000115 0.367 -0.046 0.925 2.282 2.015 -0.511
0.04513308399999971 0.36 -0.022 0.941 2.458 -0.435 -0.786
0.05886308400000928 0.378 -0.022 0.939 2.405 -3.435 -0.84
0.07104770899999835 0.389 -0.024 0.893 2.298 -2.603 -0.947
0.07814691699999798 0.399 -0.028 0.866 0.916 3.763 -1.214
0.09057500000000118 0.359 -0.024 0.875 -0.878 9.137 0.145
0.09785904199999607 0.326 -0.022 0.922 -1.687 5.389 2.107
0.11018733400000258 0.349 -0.02 0.954 -1.87 -6.634 2.802
0.11721408399999689 0.393 -0.027 0.918 -1.74 -12.252 1.962
0.12923137500000337 0.429 -0.038 0.894 -2.336 -5.702 -0.137
0.14152579199999593 0.403 -0.035 0.892 -2.756 5.702 -0.748
0.14880245900000943 0.345 -0.033 0.938 -1.786 11.153 0.687
0.16117737500000828 0.338 -0.041 0.978 1.733 4.718 3.046
0.16836929200000839 0.352 -0.028 0.936 3.702 -4.389 4.466
0.1807172919999971 0.393 -0.02 0.914 2.771 -7.282 4.344
0.18795520900000895 0.424 -0.006 0.879 1.107 -4.405 3.405
0.20014270900000497 0.43 0.0 0.902 -0.855 -2.206 2.779
0.2074204999999978 0.43 -0.002 0.903 -1.038 -1.405 2.046
0.2194510000000065 0.45 -0.024 0.911 -0.84 -1.321 0.664
0.231506459000002 0.444 -0.023 0.917 -0.611 -0.321 -0.977
0.23879495900000336 0.425 -0.031 0.912 -0.771 1.817 -1.534
0.2508087089999975 0.422 -0.038 0.917 -0.115 2.313 -1.534
0.2580939999999998 0.409 -0.018 0.9 -1.176 2.649 -1.115
0.27040850000000205 0.386 -0.02 0.892 -3.183 6.687 -0.237
0.2776960839999987 0.367 -0.021 0.918 -4.824 8.122 0.328
0.28997458400000653 0.348 -0.036 0.97 -2.947 3.885 0.664
0.29755754200000695 0.356 -0.046 0.989 0.71 -5.466 1.344
0.30927312500000426 0.403 -0.047 0.964 4.511 -13.008 0.176
0.3213433749999979 0.432 -0.036 0.905 6.069 -10.435 -1.313
0.32846587500000624 0.422 -0.017 0.863 3.008 -1.527 -3.618
0.34128470900000707 0.396 -0.006 0.891 -0.565 6.0 -3.573
0.34796795900000177 0.356 -0.008 0.927 -2.901 6.405 -0.664
0.3599814170000002 0.353 -0.021 0.945 -3.168 2.794 2.122
0.3670118750000029 0.391 -0.028 0.945 -2.168 -2.168 1.924
0.37978987500000017 0.424 -0.026 0.908 -0.71 -1.718 0.901
0.38724641700000006 0.422 -0.014 0.878 -1.328 3.573 -0.221
0.3991557500000056 0.418 -0.027 0.909 -1.527 10.13 -1.985
0.4111293750000016 0.374 -0.034 0.931 -1.198 11.496 -2.107
0.41841712500000483 0.352 -0.034 0.975 -0.328 5.832 -1.748
0.4304316670000077 0.368 -0.044 0.971 1.725 -1.244 -1.618
0.4378703750000028 0.405 -0.034 0.951 4.359 -4.382 -0.214
0.4496716250000077 0.462 -0.019 0.915 3.595 -0.595 -0.336
0.4572793340000061 0.504 0.003 0.875 0.985 10.511 -2.71
0.4692696250000097 0.514 -0.008 0.842 -1.099 28.107 -5.595
0.4813903750000037 0.514 -0.026 0.878 -3.137 42.718 -9.511
0.48842566700000134 0.441 -0.01 0.907 -4.672 53.351 -10.565
0.5003811250000041 0.355 -0.018 0.97 -3.13 57.198 -8.519
0.5077657920000007 0.344 -0.055 1.049 0.954 49.42 -7.153
0.5196538339999961 0.412 -0.064 1.053 8.305 40.374 -7.527
0.5269891250000001 0.472 -0.038 0.975 14.031 44.58 -7.244
0.5391276670000025 0.558 -0.038 0.919 15.893 65.191 -10.489
0.5507915419999989 0.651 -0.042 0.859 15.992 96.893 -19.366
0.557773042000008 0.521 0.006 0.762 14.977 139.504 -25.069
0.5698703750000078 0.143 0.023 0.769 11.023 182.832 -19.366
0.5772542920000063 -0.186 -0.04 1.009 9.641 178.336 -9.969
0.5890414170000042 -0.405 -0.057 1.291 15.817 104.679 5.122
0.601054542 -0.263 -0.053 1.34 26.702 5.466 13.863
0.6083437089999961 0.022 0.004 1.122 35.443 -55.328 13.412
0.6203652089999991 0.404 0.02 0.836 31.832 -49.542 13.847
0.6277096250000085 0.629 0.043 0.634 20.809 12.275 2.092
0.6398930000000007 0.672 0.062 0.674 8.824 90.328 -9.198
0.6471554999999967 0.601 0.043 0.762 2.595 149.504 -21.389
0.6589637920000087 0.408 0.039 0.861 -1.137 184.122 -26.87
0.6711215840000051 0.119 0.064 0.943 -3.046 200.26 -18.237
0.678158124999996 -0.131 0.033 1.065 -0.206 192.336 -8.588
0.6902378750000082 -0.321 -0.001 1.275 7.664 144.916 1.702
0.6974253340000018 -0.237 -0.037 1.397 21.695 62.847 2.328
0.7094445000000036 -0.066 0.036 1.263 34.099 -9.641 -0.878
0.7214721670000017 0.232 0.076 0.98 37.053 -24.664 -2.305
0.7287587920000078 0.466 0.088 0.706 30.107 19.573 -12.023
0.7409040000000005 0.479 0.094 0.559 13.931 96.145 -26.252
0.7479771250000056 0.323 0.102 0.656 -2.397 164.519 -37.13
0.7596592499999986 0.026 0.102 0.828 -10.397 202.053 -36.374
0.7714715839999968 -0.183 0.051 1.056 -10.87 198.382 -23.71
0.7786057090000043 -0.361 0.024 1.208 -2.053 159.672 -14.55
0.7906177500000098 -0.386 -0.006 1.33 12.489 98.817 -9.435
0.7977571670000003 -0.273 -0.015 1.3 27.137 36.588 -14.267
0.8097500420000046 -0.109 0.03 1.097 32.389 7.527 -14.58
0.8169521250000003 0.066 0.074 0.867 28.809 22.496 -19.145
0.8291125000000079 0.135 0.093 0.732 18.656 70.412 -25.794
0.8410815840000083 0.137 0.093 0.703 5.794 123.565 -34.733
0.8481667920000007 0.106 0.081 0.753 -5.672 165.695 -46.344
0.8598722920000057 -0.04 0.116 0.772 -14.557 200.145 -48.802
0.8667462500000056 -0.162 0.089 0.797 -21.046 229.489 -42.634
0.8789402090000067 -0.308 0.049 0.861 -22.855 249.26 -38.618
0.8907186670000016 -0.484 0.01 0.982 -18.588 248.664 -33.176
0.8974207090000021 -0.592 -0.016 1.095 -8.122 221.573 -26.55
0.90948533400001 -0.625 -0.034 1.146 6.847 177.053 -24.58
0.9212437090000094 -0.622 -0.01 1.086 19.542 134.122 -24.427
0.9283503750000079 -0.562 0.014 0.961 26.565 108.809 -26.626
0.9401100420000006 -0.434 0.055 0.838 26.45 99.237 -29.809
0.9472951249999966 -0.321 0.088 0.695 18.076 108.679 -34.45
0.9592773340000065 -0.284 0.122 0.565 1.595 143.214 -41.634
0.9710602090000009 -0.308 0.103 0.523 -15.618 192.603 -47.206
0.9781966250000096 -0.415 0.094 0.581 -26.992 236.29 -47.13
0.9899170000000055 -0.566 0.038 0.692 -29.412 250.13 -40.878
1.0015202499999987 -0.724 -0.03 0.833 -21.473 250.13 -34.214
1.00843725 -0.864 -0.072 0.963 -4.855 224.779 -29.191
1.0203329170000046 -0.952 -0.066 0.976 13.122 170.756 -25.206
1.026973874999996 -0.946 -0.04 0.911 27.565 117.664 -23.802
1.0390050419999994 -0.855 -0.003 0.748 33.924 83.725 -21.84
1.0511921669999964 -0.693 0.014 0.558 30.305 76.557 -21.496
1.057944083999999 -0.509 0.013 0.447 19.878 94.038 -28.985
1.0702032500000058 -0.462 0.045 0.342 6.771 128.527 -35.725
1.076951125000008 -0.53 0.065 0.29 -6.893 174.198 -37.939
1.0890481670000014 -0.697 0.037 0.349 -16.595 213.969 -34.939
1.10069458400001 -0.873 -0.027 0.536 -16.786 224.046 -28.504
1.1074786670000094 -1.036 -0.073 0.711 -7.58 196.267 -22.275
1.1194537920000016 -1.077 -0.103 0.786 6.733 140.885 -20.298
1.125339750000009 -1.005 -0.073 0.701 20.557 86.053 -22.847
1.138481167000009 -0.797 -0.025 0.518 26.153 59.542 -23.969
1.150637500000002 -0.654 -0.0 0.305 23.611 72.832 -28.656
1.1573595840000053 -0.655 0.013 0.161 12.977 112.832 -34.481
1.1697275000000076 -0.695 0.008 0.2 1.382 149.618 -37.885
1.1815870840000002 -0.855 0.03 0.251 -7.588 168.748 -36.924
1.1883274169999964 -0.996 0.003 0.311 -13.656 172.145 -30.198
1.2001206670000073 -1.065 -0.048 0.408 -13.885 156.84 -26.687
1.2071690000000075 -1.078 -0.101 0.458 -8.595 127.977 -24.87
1.2190858339999977 -1.049 -0.109 0.422 -0.779 99.756 -23.366
1.2310986250000013 -0.977 -0.083 0.371 4.817 85.443 -22.344
1.2380749590000022 -0.918 -0.063 0.279 8.275 83.962 -20.786
1.2501135840000046 -0.854 -0.071 0.203 9.481 91.511 -22.519
1.2572700420000018 -0.723 -0.087 0.164 7.084 103.656 -29.603
1.2690469590000077 -0.65 -0.045 0.056 1.87 122.122 -41.573
1.2808116249999983 -0.815 0.014 -0.106 -13.58 160.122 -43.45
1.2877477920000047 -0.99 0.009 -0.127 -31.809 206.405 -35.015
1.2996805840000007 -1.136 -0.006 0.044 -45.145 222.771 -22.053
1.311318374999999 -1.221 -0.067 0.209 -45.489 202.496 -7.313
1.318341916999998 -1.193 -0.169 0.27 -34.374 160.656 -0.183
1.330115958999997 -1.083 -0.214 0.231 -20.321 118.046 -2.496
1.3372458750000078 -0.993 -0.153 0.106 -8.824 94.038 -4.855
1.348799542000009 -0.924 -0.108 -0.012 -2.443 91.198 -5.855
1.3608003340000039 -0.905 -0.114 -0.102 -1.832 101.962 -9.687
1.367881875000009 -0.956 -0.114 -0.152 -4.947 116.29 -10.282
1.3794976670000096 -0.949 -0.108 -0.13 -10.992 123.824 -9.557
1.3913664170000004 -0.898 -0.08 -0.102 -15.038 122.74 -10.557
1.3981277090000077 -0.901 -0.061 -0.151 -17.977 124.756 -10.832
1.4096858340000011 -0.917 -0.086 -0.208 -21.405 133.924 -11.092
1.4212368339999983 -0.944 -0.112 -0.199 -23.71 141.542 -10.924
1.4281164590000088 -0.948 -0.126 -0.198 -22.794 142.305 -10.229
1.439965541999996 -0.925 -0.142 -0.193 -20.038 137.336 -12.702
1.451482542000008 -0.959 -0.15 -0.245 -18.916 134.84 -13.885
1.458334708999999 -0.999 -0.157 -0.259 -19.015 136.931 -13.16
1.4699468339999981 -1.009 -0.15 -0.231 -17.725 135.901 -12.489
1.4760650839999983 -0.936 -0.15 -0.209 -14.45 128.58 -13.832
1.4885509590000083 -0.875 -0.138 -0.237 -7.214 122.847 -16.405
1.5004761670000022 -0.877 -0.137 -0.333 -2.115 128.664 -16.557
1.5071988340000075 -0.917 -0.14 -0.406 -1.756 142.336 -16.748
1.5190250840000061 -0.93 -0.15 -0.408 -2.794 150.16 -18.313
1.5305935420000054 -0.898 -0.138 -0.32 -2.137 140.351 -21.038
1.5377064999999988 -0.858 -0.125 -0.332 1.153 123.198 -22.397
1.549471459000003 -0.844 -0.147 -0.414 4.947 116.038 -21.992
1.5612861250000094 -0.821 -0.182 -0.502 3.939 119.878 -23.198
1.568344959000001 -0.801 -0.191 -0.513 2.076 126.183 -25.878
1.5801615000000027 -0.83 -0.143 -0.545 0.45 130.504 -25.351
1.5870148340000014 -0.833 -0.125 -0.549 -1.672 130.389 -24.45
1.5987975419999998 -0.839 -0.13 -0.549 -3.802 125.42 -24.405
1.6103442090000044 -0.858 -0.152 -0.564 -5.099 120.084 -24.42
1.6174518750000004 -0.837 -0.193 -0.554 -5.153 113.16 -24.115
1.628843500000002 -0.816 -0.208 -0.562 -5.557 103.107 -24.466
1.640842125000006 -0.753 -0.195 -0.592 -6.183 97.16 -24.473
1.6474884590000016 -0.691 -0.179 -0.645 -5.504 95.55 -24.695
1.659442249999998 -0.706 -0.156 -0.709 -6.802 103.008 -24.099
1.6712267090000097 -0.744 -0.136 -0.724 -12.313 116.595 -22.466
1.6779220000000095 -0.782 -0.123 -0.671 -15.786 124.779 -21.405
1.6897256670000047 -0.788 -0.148 -0.601 -14.809 119.878 -20.771
1.7015245420000014 -0.752 -0.196 -0.569 -9.649 103.298 -20.55
1.708645458999996 -0.691 -0.248 -0.614 -2.198 86.679 -20.817
1.720352958999996 -0.639 -0.272 -0.716 2.977 79.527 -21.908
1.7274747920000095 -0.627 -0.244 -0.805 3.26 85.053 -22.29
1.7392235000000085 -0.633 -0.177 -0.852 -0.359 96.527 -19.733
1.7511110420000051 -0.628 -0.154 -0.868 -5.519 109.351 -17.626
1.7580206669999967 -0.634 -0.129 -0.889 -13.061 117.534 -17.053
1.7695852089999988 -0.615 -0.15 -0.879 -21.275 123.176 -18.29
1.7810664590000016 -0.599 -0.165 -0.849 -28.076 122.809 -21.71
1.7878873749999968 -0.59 -0.17 -0.839 -31.702 120.107 -22.672
1.7997521249999977 -0.573 -0.206 -0.84 -29.863 118.206 -22.13
1.8112746249999958 -0.57 -0.267 -0.862 -24.031 118.595 -20.786
1.8180971250000084 -0.556 -0.278 -0.866 -18.237 116.847 -18.42
1.8296891250000016 -0.539 -0.25 -0.881 -12.496 111.985 -16.099
1.8415076250000055 -0.576 -0.18 -0.944 -12.557 110.42 -14.641
1.8483595000000008 -0.553 -0.108 -0.928 -16.992 108.176 -15.748
1.8600118340000051 -0.547 -0.078 -0.945 -20.534 105.542 -16.58
1.8715544169999987 -0.548 -0.132 -0.925 -23.221 105.344 -13.985
1.8780949169999985 -0.531 -0.214 -0.93 -24.458 101.649 -10.824
1.8901332089999983 -0.547 -0.246 -0.851 -20.908 82.229 -6.313
1.897275583999999 -0.51 -0.239 -0.951 -17.405 76.244 -1.779
1.9091452920000052 -0.458 -0.209 -1.022 -15.046 82.908 0.244
1.9210406250000034 -0.375 -0.175 -1.027 -14.947 94.069 0.275
1.9280935000000028 -0.345 -0.125 -0.975 -17.908 98.893 0.74
1.939906042000004 -0.318 -0.134 -0.919 -18.939 101.595 2.702
1.9470118340000084 -0.304 -0.168 -0.895 -19.489 96.55 1.802
1.9587722500000098 -0.297 -0.181 -0.863 -18.832 93.496 -3.229
1.9706751249999996 -0.315 -0.151 -0.877 -15.718 91.267 -8.939
1.9773744170000072 -0.354 -0.11 -0.885 -11.771 85.969 -9.489
1.989479541999998 -0.385 -0.092 -0.898 -7.733 77.565 -4.534
2.001227499999999 -0.378 -0.126 -0.941 -4.901 69.672 0.725
2.0085517920000058 -0.342 -0.174 -0.956 -3.45 62.969 3.466
2.020367833999998 -0.291 -0.19 -0.953 -2.191 55.924 3.901
2.0277015420000026 -0.243 -0.143 -0.931 -1.809 47.939 2.893
2.0394367090000003 -0.228 -0.091 -0.929 -2.405 42.718 1.954
2.051496792000009 -0.23 -0.096 -0.927 -1.237 40.023 1.786
2.0588290419999993 -0.214 -0.134 -0.92 1.13 35.634 2.656
2.0707847500000014 -0.178 -0.172 -0.93 5.687 32.603 2.947
2.077823292000005 -0.179 -0.195 -0.968 8.489 33.519 1.893
2.0900671250000045 -0.199 -0.19 -1.03 7.16 38.939 -0.824
2.097044542000006 -0.236 -0.174 -1.035 5.733 46.389 -1.962
2.1090725840000033 -0.261 -0.169 -1.007 4.817 47.527 -0.702
2.12107154200001 -0.274 -0.165 -0.988 4.992 43.298 1.405
2.1283744589999998 -0.255 -0.149 -1.005 3.008 36.511 2.122
2.140125917000006 -0.261 -0.086 -1.054 -1.282 32.786 5.336
2.147218584000001 -0.238 -0.054 -1.076 -6.885 33.756 12.321
2.1590445000000074 -0.225 -0.065 -1.046 -12.618 40.305 21.046
2.1710095840000037 -0.21 -0.118 -0.996 -16.527 44.824 29.023
2.1779249169999986 -0.172 -0.198 -0.94 -15.511 42.847 29.893
2.189699583999996 -0.105 -0.243 -0.887 -10.176 33.031 20.397
2.195618834000001 -0.076 -0.237 -0.888 -2.267 21.321 4.893
2.2088046670000097 -0.13 -0.187 -0.935 4.71 12.901 -4.954
2.2208035840000093 -0.166 -0.181 -0.955 9.817 7.176 -8.137
2.227917000000005 -0.171 -0.172 -0.951 13.145 0.038 -7.16
2.2399524590000084 -0.146 -0.11 -0.995 11.733 -8.221 -2.115
2.246939542000007 -0.166 -0.063 -1.079 5.847 -7.832 3.427
2.2590683749999982 -0.178 -0.066 -1.131 -3.321 3.191 6.511
2.2710605000000044 -0.192 -0.078 -1.092 -13.328 13.969 9.557
2.277881000000008 -0.188 -0.126 -1.01 -17.076 18.053 12.031
2.2899147090000014 -0.134 -0.192 -0.912 -11.519 12.557 9.145
2.296962417000003 -0.101 -0.26 -0.91 -0.885 5.176 2.481
2.3090227920000075 -0.145 -0.267 -0.96 8.427 2.267 -1.55
2.3211281250000013 -0.173 -0.233 -0.969 15.0 -1.053 -2.061
2.3278787090000037 -0.162 -0.183 -0.942 18.557 -10.198 -0.679
2.3396522090000076 -0.146 -0.106 -0.949 18.008 -22.122 -0.015
2.3514542919999997 -0.076 -0.08 -0.963 16.336 -29.962 -1.969
2.358566625000009 -0.033 -0.121 -1.047 13.603 -30.099 -5.321
2.37035812500001 -0.047 -0.163 -1.151 7.176 -15.748 -5.344
2.377822167000005 -0.122 -0.207 -1.197 -0.756 8.786 -3.656
2.3894733750000086 -0.181 -0.22 -1.136 -6.053 27.046 -0.901
2.401493666999997 -0.217 -0.18 -1.04 -6.0 28.672 2.573
2.408620959000004 -0.247 -0.137 -0.963 -2.565 17.313 6.351
2.4205710000000096 -0.216 -0.118 -0.935 1.481 -1.015 8.527
2.4276634590000015 -0.156 -0.117 -0.919 5.542 -19.366 8.061
2.4396652500000044 -0.047 -0.137 -0.949 8.672 -30.794 3.832
2.4456352500000094 0.031 -0.14 -1.037 8.542 -28.321 -3.366
2.458822917000006 -0.004 -0.167 -1.117 4.015 -11.374 -8.931
2.470535459000004 -0.086 -0.149 -1.128 -3.496 5.985 -9.099
2.477666084000006 -0.18 -0.144 -1.053 -9.931 15.084 -4.931
2.4894462919999967 -0.221 -0.137 -0.966 -11.313 13.244 -1.046
2.5014369170000066 -0.22 -0.132 -0.903 -7.168 3.695 3.344
