Time AX AY AZ GX GY GZ
0.01456766700000145 0.007 -0.134 0.968 -3.672 0.015 0.061
0.027031083000000677 0.004 -0.135 0.957 -3.931 0.489 0.748
0.03422408300000157 0.001 -0.145 0.98 -2.702 1.168 1.496
0.04649804199999963 0.021 -0.153 0.971 -2.496 2.664 1.786
0.05400970800000238 0.006 -0.158 0.987 -2.153 1.74 1.389
0.06627625000000137 0.009 -0.167 0.987 -1.656 1.947 1.069
0.07360291700000232 0.011 -0.163 0.979 -0.756 1.779 0.824
0.08608520800000008 0.007 -0.165 0.98 -0.947 1.16 0.74
0.09325225000000259 -0.001 -0.167 0.976 -1.718 2.473 0.198
0.10556479200000268 0.014 -0.152 0.995 -0.42 1.328 0.26
0.11134058300000049 0.009 -0.153 0.974 -0.153 1.076 -0.366
0.12523404200000243 0.005 -0.151 0.982 -0.389 1.481 -0.733
0.13754641700000292 0.007 -0.149 0.987 -0.405 0.588 -0.511
0.14478441700000033 0.003 -0.147 0.989 -1.527 0.015 -0.847
0.15680641700000209 0.002 -0.152 0.978 -1.237 -0.137 -0.649
0.1641042920000011 0.001 -0.148 0.975 -1.992 -0.137 -0.405
0.17639250000000217 0.0 -0.147 0.986 -1.084 -0.565 -0.084
0.1836353750000015 0.002 -0.149 0.975 -0.763 -0.656 -0.145
0.1956735000000016 0.004 -0.139 0.969 -1.336 -0.557 -0.626
0.20767712500000002 0.01 -0.131 0.966 -0.916 -1.122 -1.061
0.2149815420000003 0.01 -0.135 0.966 -1.023 -1.153 -0.962
0.22727025000000012 0.005 -0.139 0.97 -0.962 -1.023 -0.832
0.23453779200000113 0.005 -0.15 0.972 -1.382 -1.046 -0.809
0.24657425000000188 0.007 -0.156 0.967 -1.824 -1.092 -0.214
0.25384454200000306 0.0 -0.159 0.963 -1.107 -0.153 0.176
0.2661619170000016 -0.001 -0.158 0.97 -1.809 0.282 0.504
0.27363616700000293 0.003 -0.156 0.991 -1.824 0.351 0.748
0.2856746250000022 0.003 -0.15 0.991 -1.313 0.153 -0.008
0.29174166700000015 -0.003 -0.151 0.992 -0.779 0.771 -0.351
0.3052088330000018 0.002 -0.146 0.989 0.092 1.061 -0.45
0.3174935420000011 0.004 -0.159 0.997 2.038 1.58 -0.656
0.32503258300000226 0.008 -0.162 0.993 1.275 1.267 -1.053
0.3373001670000022 -0.001 -0.174 0.987 0.145 0.702 -1.023
0.3445630830000006 -0.002 -0.17 0.978 -1.015 0.321 -1.115
0.3565607919999998 -0.014 -0.156 0.979 -0.817 1.298 -0.427
0.36410816700000126 0.0 -0.149 0.988 0.076 2.198 0.336
0.37634366700000044 0.001 -0.151 1.001 1.13 3.084 0.847
0.38384974999999955 0.008 -0.148 0.993 1.916 3.26 0.45
0.3963639170000022 0.004 -0.146 0.974 2.244 2.008 0.023
0.4036837920000025 0.007 -0.137 0.961 1.74 0.817 -1.206
0.4159222920000012 0.009 -0.139 0.96 -1.015 -0.679 -1.611
0.4231656250000029 0.007 -0.132 0.969 -2.771 -2.664 -1.847
0.4352266250000021 0.005 -0.138 0.964 -3.053 -2.878 -1.611
0.447267667000002 -0.006 -0.139 0.968 -2.595 -2.16 -1.198
0.454515875000002 0.001 -0.151 0.97 -1.092 -1.298 -0.626
0.4665920000000021 -0.004 -0.139 0.952 -0.832 -0.427 -0.45
0.4738750420000031 0.001 -0.132 0.941 -0.053 0.031 -0.687
0.48618795800000214 0.004 -0.139 0.958 -1.695 0.366 -0.58
0.49339870800000085 0.001 -0.125 0.956 -0.84 0.588 -0.962
0.5057022500000024 0.008 -0.141 0.952 0.412 0.962 -0.863
0.5131843750000016 0.009 -0.149 0.951 0.519 0.817 -0.908
0.5254707080000003 0.006 -0.154 0.941 -0.779 0.565 -0.84
0.537523292000003 0.005 -0.157 0.935 -1.718 1.137 -0.908
0.5450341250000008 0.009 -0.144 0.944 -2.336 1.496 -0.794
0.5570328750000009 0.001 -0.145 0.928 -2.137 1.87 -0.664
0.5645487080000002 0.009 -0.15 0.915 -0.817 1.962 -0.908
0.5765699580000003 0.012 -0.151 0.906 -1.053 1.481 -1.58
0.5840982080000003 0.004 -0.155 0.901 -0.71 0.435 -2.618
0.5964415420000009 0.009 -0.162 0.863 0.756 0.573 -3.176
0.6034167920000009 0.024 -0.165 0.825 2.374 0.527 -3.336
0.6159315000000021 0.021 -0.159 0.802 6.237 0.366 -4.038
0.6234267920000001 0.01 -0.166 0.775 3.969 0.305 -3.84
0.6357064580000014 0.01 -0.187 0.711 10.893 0.008 -7.427
0.6477199579999997 0.012 -0.139 0.655 16.275 -0.878 -7.977
0.6550057500000008 -0.01 -0.178 0.561 25.695 -2.863 -7.618
0.667063958 -0.063 -0.218 0.536 30.893 -3.061 -6.878
0.6744304999999997 0.035 -0.212 0.483 34.107 -9.733 -3.763
0.6861118330000018 -0.064 -0.116 0.42 46.267 -15.588 13.87
0.6934388750000018 -0.014 -0.09 0.377 48.321 -14.679 17.672
0.7052205420000028 -0.051 -0.019 0.367 52.534 -10.313 15.481
0.7175066670000021 -0.049 0.011 0.335 48.977 -4.053 6.565
0.7250090419999999 -0.058 0.022 0.302 40.16 7.389 4.214
0.7370336670000022 -0.067 0.006 0.286 73.603 13.382 9.885
0.7443324170000025 -0.077 0.007 0.303 76.344 15.748 25.031
0.756525167000003 -0.073 -0.062 0.268 74.519 15.313 38.588
0.7636635419999998 -0.02 -0.105 0.314 66.29 22.695 39.687
0.7756651669999997 0.014 -0.09 0.371 51.168 25.832 46.191
0.7817448750000011 0.047 -0.081 0.351 43.55 21.595 47.45
0.7953142080000006 0.05 -0.038 0.374 33.985 20.954 44.74
0.8072916670000012 0.076 -0.015 0.391 28.023 13.626 49.939
0.8146045000000015 -0.023 0.036 0.385 24.779 -1.924 57.504
0.8266437920000023 0.004 0.091 0.353 14.0 -19.229 58.336
0.8338590830000001 -0.069 0.095 0.355 0.038 -25.878 50.389
0.8458911670000013 -0.138 0.064 0.427 -26.718 -20.305 35.458
0.8577215420000002 -0.113 -0.013 0.457 -37.145 -21.198 29.0
0.864772833 -0.078 -0.073 0.55 -36.817 -11.427 17.695
0.8768349579999999 -0.037 -0.106 0.682 -44.038 -0.321 7.061
0.8841140420000002 -0.006 -0.155 0.803 -57.107 -7.496 -3.237
0.8959291250000021 0.02 -0.178 0.826 -74.282 -25.924 -14.504
0.9077051669999996 0.107 -0.151 0.775 -93.023 -43.45 -33.542
0.9146441670000023 0.104 -0.153 0.656 -96.641 -57.58 -27.351
0.9266246670000022 0.067 -0.162 0.639 -105.962 -53.13 -14.779
0.9339045420000005 0.057 -0.205 0.738 -100.366 -40.954 1.214
0.9456479580000021 0.065 -0.301 0.878 -87.878 -23.252 11.649
0.9577097500000029 0.052 -0.385 1.008 -84.656 -0.412 21.702
0.9652545830000001 0.077 -0.438 1.145 -83.74 20.214 26.924
0.9770435830000004 0.061 -0.447 1.256 -77.687 30.42 23.641
0.9844265000000014 0.104 -0.444 1.276 -75.702 28.351 16.374
0.996358292 0.073 -0.438 1.21 -87.885 12.931 9.046
1.0036663330000017 0.094 -0.348 1.241 -106.786 6.183 13.076
1.0156636670000019 0.094 -0.313 1.154 -98.863 0.443 15.008
1.0278011249999999 0.034 -0.306 1.209 -85.45 11.336 15.55
1.034948958000001 0.048 -0.311 1.24 -69.214 18.031 23.656
1.0469521250000007 0.023 -0.334 1.267 -50.618 21.061 29.931
1.0536445830000005 0.06 -0.317 1.329 -45.412 23.618 28.542
1.0659721670000017 0.086 -0.328 1.322 -33.305 15.664 28.313
1.0728880000000025 0.072 -0.351 1.29 -26.275 15.573 33.42
1.085357708 0.123 -0.374 1.308 -24.519 23.779 34.893
1.0974953750000012 0.065 -0.409 1.39 -51.382 16.466 50.214
1.1044436250000018 0.031 -0.493 1.444 -31.015 45.962 52.718
1.1165226250000018 -0.046 -0.45 1.479 -18.763 64.443 53.458
1.1234525000000026 -0.084 -0.444 1.523 5.634 90.023 49.55
1.1356950420000018 -0.111 -0.381 1.537 16.763 89.656 46.137
1.1427516250000025 -0.128 -0.345 1.576 3.725 77.038 34.931
1.1549754170000028 -0.11 -0.336 1.545 -22.13 53.42 7.145
1.1672145829999998 -0.031 -0.396 1.482 -42.443 27.595 0.427
1.1744109580000028 -0.065 -0.454 1.453 -63.382 9.863 -3.542
1.1866216670000007 -0.124 -0.484 1.455 -49.618 1.885 6.16
1.1935870000000008 -0.145 -0.423 1.496 -36.13 11.672 12.42
1.2058029169999998 -0.148 -0.36 1.506 1.183 15.023 16.733
1.2132065830000016 -0.125 -0.324 1.47 0.092 22.397 16.237
1.225257292000002 -0.135 -0.291 1.417 -9.015 18.733 11.267
1.237254250000003 -0.181 -0.27 1.468 -35.939 9.42 1.725
1.2445401670000003 -0.087 -0.283 1.484 -46.107 0.26 -1.641
1.2566674580000026 -0.178 -0.354 1.497 -47.71 -9.779 -4.038
1.263687583000003 -0.245 -0.356 1.505 -54.802 -24.947 19.794
1.2754396250000006 -0.235 -0.448 1.5 -46.275 -17.924 9.847
1.2875369580000005 -0.226 -0.37 1.408 -13.214 -35.435 16.168
1.2945582500000015 -0.152 -0.418 1.33 9.924 -29.618 17.061
1.306641583000001 -0.174 -0.409 1.27 12.489 -22.55 17.176
1.3136710420000028 -0.142 -0.43 1.301 12.542 -18.817 14.855
1.3256763750000005 -0.126 -0.406 1.332 12.863 -7.153 14.466
1.337710458 -0.139 -0.374 1.288 10.893 -16.779 10.198
1.3449914170000028 -0.11 -0.427 1.229 12.16 -17.145 6.405
1.357024625000001 -0.086 -0.426 1.143 9.679 -19.924 5.58
1.364331 -0.076 -0.41 1.055 11.718 -22.092 3.794
1.3763966250000017 -0.043 -0.396 1.002 10.595 -21.641 3.115
1.383418583000001 -0.046 -0.393 0.901 14.519 -18.015 0.168
1.3954603750000025 -0.04 -0.392 0.884 20.45 -15.618 -0.427
1.4075501250000002 -0.047 -0.391 0.862 20.595 -14.458 0.779
1.4145231670000022 -0.048 -0.363 0.808 19.099 -11.267 -2.023
1.4266672500000013 -0.065 -0.361 0.845 17.55 -11.58 1.595
1.4338661250000015 -0.043 -0.369 0.851 13.282 -14.099 0.076
1.445889458 -0.051 -0.352 0.833 11.618 -16.0 -2.985
1.4518360829999999 -0.052 -0.35 0.806 9.031 -13.397 -4.122
1.4652375000000006 -0.051 -0.349 0.787 8.053 -8.763 -4.29
1.4772432500000008 -0.054 -0.338 0.791 6.611 -2.977 -4.45
1.4846894580000018 -0.048 -0.341 0.802 9.336 2.519 -4.756
1.4968245830000022 -0.063 -0.34 0.829 12.466 4.962 -3.496
1.504168625000002 -0.048 -0.31 0.828 12.496 7.885 -2.733
1.516168417000003 -0.04 -0.324 0.851 9.916 7.74 -2.771
1.5236525830000005 -0.036 -0.314 0.886 5.84 9.206 -5.359
1.5356444580000002 -0.027 -0.304 0.91 2.908 7.87 -5.137
1.5417777500000014 -0.033 -0.303 0.926 -0.099 5.71 -4.969
1.5552114170000024 -0.021 -0.314 0.97 -1.824 5.985 -6.817
1.5672542080000014 -0.023 -0.312 0.995 -1.252 3.763 -6.076
1.5745563750000002 -0.033 -0.315 1.027 -1.267 0.55 -6.076
1.5867498750000024 -0.039 -0.317 1.014 5.008 -2.069 -5.832
1.5937353750000014 -0.037 -0.303 1.017 6.252 -2.786 -5.725
1.6061011250000021 -0.041 -0.31 1.014 6.534 -2.153 -5.145
1.6134725000000003 -0.048 -0.304 1.006 6.901 -1.573 -4.344
1.625503417000001 -0.049 -0.307 0.989 8.053 -2.061 -4.191
1.6375080000000004 -0.074 -0.303 0.938 3.573 -5.221 -1.802
1.6447914580000003 -0.063 -0.303 0.943 3.351 -5.206 -2.977
1.6570857500000002 -0.054 -0.306 0.936 0.863 -7.092 -1.649
1.6644391250000012 -0.061 -0.305 0.904 0.847 -7.45 -0.855
1.6765260000000026 -0.057 -0.305 0.883 -0.901 -6.046 -2.092
1.6834320419999997 -0.043 -0.303 0.879 -1.718 -3.901 -2.87
1.6954350419999997 -0.061 -0.305 0.878 -1.573 -3.641 -1.931
1.7075126669999996 -0.056 -0.307 0.878 -0.008 -1.55 -0.313
1.715003333000002 -0.061 -0.301 0.882 5.702 3.649 2.038
1.7272591249999998 -0.069 -0.32 0.877 12.809 5.282 4.588
1.7345923750000019 -0.056 -0.31 0.91 12.931 7.374 6.038
1.7468215830000027 -0.053 -0.296 0.919 15.924 8.45 7.519
1.7541003330000002 -0.054 -0.287 0.936 14.45 4.031 5.84
1.7664043330000005 -0.048 -0.296 0.947 14.13 3.863 3.481
1.7736726249999997 -0.06 -0.296 0.945 10.466 5.901 2.214
1.785908250000002 -0.06 -0.288 0.952 8.42 7.458 3.985
1.7934025000000027 -0.069 -0.291 0.964 6.847 7.26 3.282
1.8056625830000002 -0.056 -0.294 0.965 5.229 5.748 3.275
1.8115947500000011 -0.069 -0.289 0.94 0.802 6.382 3.443
1.8251860000000022 -0.073 -0.28 0.933 1.008 7.382 3.855
1.837508875000001 -0.068 -0.286 0.944 2.832 5.817 2.481
1.8449657080000001 -0.061 -0.292 0.935 1.176 4.679 1.603
1.8572503749999996 -0.079 -0.287 0.946 -0.206 4.847 0.198
1.864543458 -0.081 -0.289 0.946 -0.137 5.031 0.55
1.876784292 -0.082 -0.287 0.957 0.328 6.137 0.626
1.8843024580000005 -0.093 -0.285 0.964 1.038 5.221 2.069
1.8963687080000007 -0.1 -0.293 0.977 -1.145 5.718 2.29
1.9038677499999999 -0.104 -0.289 0.969 -1.069 3.534 3.168
1.9158873330000006 -0.103 -0.286 0.968 -0.466 2.809 3.42
1.923449583 -0.094 -0.293 0.966 -1.206 2.26 3.588
1.9354587920000021 -0.087 -0.293 0.938 -1.481 2.153 3.42
1.9476792920000001 -0.086 -0.289 0.941 -2.176 2.313 3.29
1.9549747500000016 -0.082 -0.287 0.933 -1.221 2.802 3.656
1.967239333000002 -0.073 -0.282 0.904 -1.809 1.389 3.252
1.9745327080000017 -0.076 -0.29 0.935 -2.382 2.817 2.84
1.9868078750000002 -0.068 -0.289 0.947 -1.817 1.557 2.618
1.9940995420000007 -0.073 -0.305 0.964 -2.023 1.061 2.573
2.006471708000003 -0.067 -0.289 0.948 -0.824 -0.786 2.031
