Time AX AY AZ GX GY GZ
0.013101833000007446 0.054 0.016 0.982 -0.534 0.656 0.275
0.02011883299999795 0.063 0.016 0.977 -1.748 -0.29 -0.55
0.03232637499999669 0.055 0.022 0.981 -2.031 -0.603 -0.656
0.03948312500000384 0.049 0.029 0.987 -2.389 -0.107 -0.374
0.05189095800000132 0.049 0.035 1.01 -1.87 0.275 0.115
0.05748650000001021 0.05 0.029 1.026 -0.038 -0.26 0.176
0.07130104099999812 0.041 0.035 1.034 0.863 -1.511 -0.763
0.08382045799999105 0.052 0.034 1.032 0.977 -3.084 -1.183
0.09083000000001107 0.07 0.027 1.015 2.237 -7.733 3.901
0.10325166600000557 0.043 0.037 0.986 1.26 -3.626 0.87
0.11074745799999164 0.034 0.033 0.983 3.137 -1.122 2.237
0.12307433300000525 0.044 0.039 0.968 4.282 1.412 2.344
0.13057279099999164 0.054 0.042 0.975 3.405 2.366 0.679
0.14289949999999862 0.053 0.05 0.966 3.443 1.634 -0.687
0.15041591599998583 0.049 0.043 0.981 3.489 1.176 1.038
0.16263520800001174 0.057 0.047 0.965 1.847 -0.656 -0.076
0.16990125000000944 0.052 0.046 0.988 2.061 -0.74 -1.183
0.18220762499998955 0.053 0.035 0.996 1.748 -2.137 -0.496
0.1894806249999874 0.047 0.025 1.001 2.176 -3.481 -0.504
0.20204100000000835 0.052 0.024 0.989 0.344 -4.947 -0.618
0.21380241599999295 0.049 0.023 0.969 -1.092 -4.443 -0.443
0.2214417079999862 0.049 0.039 0.974 -2.412 -3.366 0.107
0.23333087500000715 0.052 0.05 0.974 -1.725 -2.771 1.305
0.24063504099999022 0.058 0.06 0.978 -0.099 -1.573 -0.191
0.2528454579999959 0.061 0.057 0.99 0.214 -1.626 -0.534
0.26009008299999437 0.069 0.045 0.993 1.847 -1.359 -0.206
0.27239074999999957 0.061 0.031 0.993 1.824 -1.183 -0.267
0.2796854579999888 0.064 0.032 0.995 1.221 -1.015 -0.267
0.29199191600000063 0.066 0.034 1.001 0.046 -0.527 0.084
0.2994621660000121 0.06 0.043 1.009 0.084 -0.031 -0.008
0.31175049999998805 0.058 0.046 1.007 0.618 0.809 -0.321
0.32374666600000523 0.057 0.044 1.023 -0.855 0.74 -0.649
0.3310708330000125 0.066 0.039 1.02 -1.786 -0.282 -1.458
0.34328074999999103 0.057 0.032 1.003 -1.977 -1.153 -1.618
0.35060745800001314 0.055 0.027 0.996 -0.985 -1.206 -1.725
0.36263129099998537 0.053 0.018 0.977 0.656 -0.969 -1.573
0.37014291599999183 0.049 0.012 0.974 1.511 -0.351 -1.87
0.3823850830000026 0.047 0.017 0.98 1.275 0.298 -1.962
0.3897181659999944 0.054 0.023 0.96 1.603 0.435 -2.443
0.4019333329999881 0.053 0.028 0.937 1.435 0.725 -2.771
0.4094774159999872 0.046 0.022 0.906 2.214 1.053 -3.42
0.42171650000000227 0.05 0.024 0.876 0.0 0.901 -3.756
0.4337374159999854 0.052 0.022 0.841 -1.87 -0.145 -3.824
0.44089016600000264 0.053 0.031 0.789 -3.527 -0.641 -4.771
0.45335520800000495 0.062 0.025 0.757 -5.008 -1.275 -5.427
0.46042424999998843 0.065 0.03 0.693 -4.176 -2.763 -5.489
0.47263962499999934 0.059 0.016 0.65 -5.0 -4.008 -5.962
0.47992945799998665 0.041 0.004 0.612 -6.824 -6.076 -6.221
0.4919613330000061 -0.031 0.015 0.579 -5.115 -9.191 -3.427
0.5037562500000092 -0.009 -0.005 0.514 -6.885 -10.87 -1.802
0.5108287909999945 -0.006 -0.003 0.462 -10.672 -12.481 -1.863
0.5226645410000117 -0.027 0.014 0.45 -14.977 -13.931 -0.901
0.5299550830000044 -0.038 0.019 0.421 -19.756 -13.893 0.191
0.5418007080000109 -0.044 0.032 0.439 -26.466 -15.061 -0.092
0.553492250000005 -0.057 0.041 0.438 -34.466 -18.031 -0.725
0.560348083000008 -0.071 0.061 0.421 -42.603 -22.481 -0.16
0.5725383749999935 -0.087 0.095 0.424 -48.344 -23.718 1.366
0.5793389160000117 -0.066 0.115 0.43 -45.847 -20.061 4.405
0.591536208000008 -0.03 0.104 0.432 -36.046 -14.336 6.153
0.6037786660000108 -0.012 0.098 0.464 -27.832 -7.267 4.962
0.6110522909999929 -0.009 0.112 0.549 -24.573 -4.099 9.763
0.6230855409999947 0.026 0.059 0.565 -25.275 -4.603 3.55
0.6304167909999876 0.03 0.059 0.605 -33.71 -14.092 4.634
0.6424212910000051 0.022 0.037 0.579 -46.153 -22.748 6.008
0.6494390830000043 0.024 0.014 0.525 -58.122 -30.053 8.672
0.6615674159999969 0.025 0.004 0.49 -61.473 -31.473 12.458
0.673289791000002 0.031 -0.01 0.472 -59.13 -27.931 17.107
0.6804082499999993 0.043 -0.039 0.519 -54.71 -17.412 20.771
0.6924110409999855 0.06 -0.065 0.57 -44.588 -5.748 29.275
0.6997047909999878 0.065 -0.091 0.629 -32.702 4.977 35.893
0.7115436660000114 0.058 -0.127 0.73 -17.649 21.076 39.908
0.7235214579999933 0.058 -0.131 0.858 -5.885 29.351 44.55
0.7307941660000097 0.056 -0.146 0.899 2.84 25.786 48.557
0.7428695000000118 0.055 -0.167 0.863 -7.511 17.542 45.344
0.7501398750000021 0.059 -0.197 0.766 -21.595 11.687 43.931
0.761989457999988 0.12 -0.272 0.727 -20.374 10.145 39.137
0.7739865830000099 0.113 -0.265 0.75 -26.656 16.534 30.977
0.7810147079999865 0.076 -0.251 0.866 -20.481 26.282 27.206
0.7930661659999885 0.061 -0.239 1.017 -17.962 36.198 26.214
0.8004602080000041 0.032 -0.246 1.115 -3.542 32.519 22.672
0.8124032080000063 0.023 -0.25 1.156 8.244 28.832 20.305
0.8196479579999902 0.019 -0.2 1.165 9.489 14.084 18.313
0.8319551660000002 0.001 -0.181 1.069 1.214 2.496 13.015
0.843976457999986 0.034 -0.148 1.036 -17.824 -0.588 9.534
0.8512852499999894 0.061 -0.154 1.008 -33.206 1.672 6.916
0.8632793330000084 0.062 -0.212 1.071 -38.527 5.603 3.702
0.8705929999999853 0.09 -0.24 1.143 -36.924 5.618 2.756
0.882610083000003 0.094 -0.227 1.2 -29.183 5.176 2.649
0.889964415999998 0.11 -0.226 1.25 -20.137 12.802 -2.031
0.9019509579999863 0.122 -0.232 1.308 -17.618 1.053 1.046
0.914103415999989 0.166 -0.262 1.306 -2.71 -9.038 2.947
0.9212876249999908 0.123 -0.312 1.242 6.947 -11.427 -2.366
0.9332913750000102 0.172 -0.26 1.269 12.527 -7.13 7.489
0.9405058330000031 0.174 -0.27 1.287 21.985 -3.573 6.565
0.9528663330000029 0.186 -0.282 1.343 17.45 8.779 6.74
0.9601328329999888 0.185 -0.267 1.457 13.466 10.679 8.992
0.9722282500000006 0.192 -0.261 1.516 -1.053 12.405 10.847
0.9794575829999985 0.179 -0.219 1.624 -3.206 13.473 5.122
0.9915489580000099 0.123 -0.214 1.761 -36.13 0.847 12.679
1.0033072909999987 0.129 -0.21 2.0 -46.061 -17.977 30.221
1.010192499999988 0.145 -0.19 1.916 -45.153 -56.931 32.954
1.0222819159999972 0.249 -0.208 2.0 -14.901 -79.527 36.038
1.028967999999992 0.156 -0.137 1.951 10.069 -95.115 46.542
1.041398249999986 0.226 -0.09 1.956 21.954 -81.481 35.336
1.0535334999999861 0.248 0.002 1.964 14.878 -59.71 39.153
1.0604707910000002 0.257 0.046 2.0 0.588 -36.008 30.924
1.0727621659999897 0.24 0.044 1.967 -7.588 -16.702 34.473
1.079496957999993 0.26 -0.026 1.663 -26.176 -7.45 29.458
1.0917492910000135 0.255 -0.111 1.369 -37.695 10.58 15.786
1.1037490409999862 0.132 -0.139 1.082 -63.382 10.237 13.756
1.1107748750000042 0.202 -0.246 1.136 -50.008 41.076 0.809
1.1230267500000082 0.168 -0.268 0.934 -28.443 39.061 -4.824
1.1298341250000021 0.169 -0.277 0.812 -13.45 27.977 -17.061
1.1418317080000122 0.119 -0.258 0.738 -9.527 16.153 -20.206
1.154023790999986 0.042 -0.26 0.603 -12.122 15.656 -16.733
1.1608503749999954 0.099 -0.276 0.598 -0.618 11.099 -14.679
1.173046916000004 0.104 -0.299 0.541 1.924 10.061 -6.282
1.1804019580000045 0.076 -0.267 0.612 13.061 10.916 -13.008
1.1924306249999859 0.061 -0.238 0.711 8.519 16.87 -13.947
1.199446082999998 0.043 -0.219 0.813 2.695 20.809 -13.649
1.2114657079999915 0.033 -0.221 0.892 4.137 26.092 -11.611
1.2237590000000012 0.032 -0.232 0.95 6.55 31.107 -9.214
1.2308309580000127 0.101 -0.232 1.029 9.023 44.977 -25.321
1.2428239159999919 0.022 -0.222 0.993 9.076 44.053 -16.214
1.250181457999986 0.033 -0.218 1.057 14.061 36.466 -16.069
1.262204875000009 0.028 -0.193 1.125 18.695 21.366 -9.557
1.2694499160000134 0.047 -0.174 1.161 14.099 5.87 -4.702
1.2815652499999999 0.039 -0.166 1.139 12.977 -2.282 -2.008
1.293542916000007 0.052 -0.18 1.119 13.069 -4.74 -0.802
1.3008588749999888 0.061 -0.183 1.093 9.832 -5.718 -1.168
1.3128489579999894 0.057 -0.177 1.037 7.603 -3.427 -1.672
1.32012420800001 0.046 -0.172 1.008 7.893 1.748 -1.595
1.3323890000000063 0.052 -0.163 0.984 8.137 5.466 -1.313
1.3396257079999998 0.042 -0.165 0.982 7.748 6.733 -1.382
1.3519272499999886 0.04 -0.145 0.959 5.214 5.626 -1.107
1.3577740000000063 0.036 -0.141 0.949 4.794 5.237 -1.176
1.3715510000000108 0.036 -0.156 0.959 4.802 4.725 -1.397
1.3837734159999968 0.044 -0.159 0.952 2.771 2.931 -0.351
1.3910301249999861 0.039 -0.171 0.939 3.992 2.618 0.023
1.403265833000006 0.043 -0.17 0.934 5.496 3.244 0.29
1.4109037910000097 0.037 -0.172 0.949 4.847 3.053 -0.641
1.4228239999999914 0.028 -0.173 0.955 4.901 3.237 -0.947
1.4304092909999895 0.031 -0.159 0.971 4.901 3.099 0.053
1.4426973330000123 0.028 -0.16 0.972 5.374 2.504 0.496
1.4501441250000084 0.038 -0.151 0.984 3.84 0.947 0.687
1.4623102909999943 0.043 -0.142 0.98 1.695 -0.122 1.13
1.4697233329999904 0.052 -0.141 0.97 0.763 -0.511 1.878
1.4817182909999929 0.058 -0.148 0.98 -0.313 -0.061 2.321
1.4940167080000037 0.062 -0.141 0.994 0.779 0.779 2.382
1.5016099160000067 0.065 -0.145 0.985 1.908 1.641 1.252
1.5137843329999896 0.069 -0.152 0.97 2.031 2.122 0.26
1.5210649160000003 0.053 -0.147 0.985 2.42 2.458 -0.649
1.533235082999994 0.051 -0.152 0.983 2.313 2.076 -1.008
1.5405904159999864 0.043 -0.159 0.977 0.603 0.87 -1.672
1.5527797500000133 0.044 -0.15 0.979 -1.565 -0.183 -1.779
1.559710832999997 0.038 -0.149 0.977 -1.954 -0.374 -1.191
1.571953666000013 0.036 -0.157 0.98 -1.916 -0.649 -0.908
1.5839777909999952 0.032 -0.159 0.971 -2.252 -0.817 -0.702
1.5910441249999963 0.041 -0.158 0.964 -1.916 -0.626 -0.702
1.6033410830000037 0.035 -0.16 0.966 -1.924 0.084 -0.969
1.6106294580000053 0.033 -0.155 0.96 -2.282 0.55 -0.412
1.6226370830000008 0.032 -0.162 0.971 -1.534 1.191 -0.061
1.6299288749999903 0.033 -0.156 0.975 -1.26 1.725 -0.122
1.6419168749999926 0.043 -0.16 0.973 -3.092 1.733 -0.092
1.6480313330000058 0.043 -0.154 0.979 -0.634 1.137 -0.542
1.6615136659999905 0.048 -0.171 0.975 0.191 0.817 -0.58
1.6737603750000005 0.048 -0.161 0.979 1.328 1.015 -0.855
1.681020999999987 0.05 -0.164 0.969 1.405 0.405 -0.58
1.693352874999988 0.053 -0.145 0.971 1.588 0.176 -0.763
1.7005625410000107 0.049 -0.15 0.962 1.641 0.389 -0.366
1.7128374160000135 0.039 -0.138 0.965 0.634 0.924 0.366
1.7203678330000116 0.05 -0.147 0.964 1.26 0.771 0.046
1.7323867499999892 0.049 -0.148 0.982 0.58 1.099 -0.511
1.7398920409999903 0.038 -0.146 0.999 0.504 1.374 -0.74
1.7519158750000088 0.036 -0.141 0.998 0.42 1.076 -0.313
1.7595119160000081 0.038 -0.151 0.986 0.29 0.863 -0.099
1.7714873330000103 0.044 -0.152 0.985 -0.817 0.221 0.221
1.7838034579999942 0.047 -0.162 0.976 -1.588 -0.733 0.687
1.7910578329999964 0.043 -0.156 0.97 -1.458 -0.779 0.969
1.8030528330000095 0.033 -0.166 0.962 -1.527 -0.695 1.496
1.8103861660000007 0.04 -0.16 0.966 -1.038 -0.015 1.557
1.822598625000012 0.038 -0.169 0.965 0.145 0.511 1.504
1.8301412079999864 0.042 -0.167 0.96 1.374 0.626 0.901
1.8423942500000123 0.039 -0.163 0.975 1.893 0.939 0.649
1.849656500000009 0.039 -0.168 0.984 1.954 0.244 0.206
1.8619227499999909 0.041 -0.166 0.98 1.588 -0.061 0.008
1.8678227499999878 0.04 -0.164 0.995 0.947 0.115 -0.893
1.8814902910000058 0.031 -0.162 0.988 0.985 0.71 -1.115
1.8937840829999857 0.036 -0.165 0.975 1.366 1.313 -1.229
1.9010254579999923 0.032 -0.163 0.985 1.275 1.626 -1.435
1.9133302079999908 0.039 -0.166 0.973 1.336 1.817 -0.969
1.9205657500000086 0.031 -0.162 0.958 1.794 2.718 -0.954
1.9328908329999877 0.04 -0.155 0.974 1.924 3.221 -0.603
1.9401839159999952 0.043 -0.157 0.977 0.725 2.573 -0.389
1.9521887500000048 0.045 -0.155 0.976 -0.534 1.588 -0.466
1.9594396249999875 0.048 -0.145 0.986 -0.084 1.29 -0.534
1.971710250000001 0.043 -0.138 0.977 0.634 0.817 -0.779
1.983975665999992 0.049 -0.142 0.981 1.924 0.954 -1.282
1.9912377079999999 0.043 -0.137 0.979 2.076 1.168 -1.595
2.0035185829999875 0.044 -0.131 0.987 1.55 0.763 -1.786
