Time AX AY AZ GX GY GZ
0.014120583000007514 -0.007 0.026 0.987 -5.267 1.626 -2.802
0.02677587499999845 0.022 0.036 0.99 -7.382 8.176 -4.573
0.03328608300000724 0.009 0.022 1.015 -7.504 16.542 -5.389
0.04579829099999699 -0.027 -0.002 1.052 -5.359 18.382 -5.992
0.05240729100000863 -0.079 0.0 1.074 -2.328 11.947 -5.763
0.06468029100000194 -0.064 -0.004 1.05 0.863 4.351 -5.198
0.071713625000001 -0.041 -0.003 0.997 1.229 3.489 -5.298
0.08414870800000074 -0.042 0.017 0.959 0.359 8.26 -5.076
0.09612366599999689 -0.06 -0.014 0.984 -0.656 11.107 -5.779
0.10322770800000569 -0.097 -0.004 1.004 -2.145 6.565 -6.008
0.1155449160000046 -0.089 0.001 1.007 -3.122 1.649 -5.504
0.12247370800000112 -0.07 0.003 0.99 -4.328 0.176 -5.435
0.13474512499999491 -0.077 -0.001 1.002 -4.534 0.908 -4.473
0.14184587500000134 -0.078 -0.01 1.029 -4.427 -1.763 -3.496
0.15371187499999905 -0.082 -0.009 1.043 -1.374 -6.443 -3.649
0.16590416600000424 -0.055 -0.021 1.056 3.405 -8.145 -1.237
0.1731173750000039 -0.032 -0.019 1.034 5.626 -6.557 -0.519
0.18527687499999956 -0.016 0.006 1.037 6.618 -4.916 -1.382
0.192571375 -0.004 0.011 0.999 6.137 -2.809 -2.519
0.2048692910000085 -0.018 0.017 0.975 4.069 1.084 -2.611
0.21213416599999846 -0.043 0.016 0.982 2.649 2.046 -2.519
0.2243546250000037 -0.048 0.011 1.011 1.847 -0.206 -2.931
0.23639158299999963 -0.042 0.003 1.017 2.038 -2.893 -3.206
0.2437035829999985 -0.042 0.01 1.007 1.924 -4.237 -3.824
0.2557247910000058 -0.017 -0.014 0.999 2.573 -3.366 -3.336
0.26304091600000845 -0.011 -0.012 0.995 3.313 -2.115 -5.153
0.2750487079999999 -0.03 0.003 0.98 3.656 -1.397 -5.229
0.28233337500000744 -0.027 0.013 0.983 3.252 -2.145 -5.26
0.29434762500000033 -0.023 0.018 0.995 3.206 -2.87 -6.137
0.30672041600000455 -0.033 0.014 0.994 2.725 -1.382 -6.42
0.31398254100000145 -0.041 0.006 1.008 2.336 -0.328 -6.985
0.32598533300000554 -0.041 -0.003 1.02 2.672 -0.893 -7.275
0.3329864159999971 -0.044 -0.017 1.008 3.336 -0.641 -7.611
0.345028874999997 -0.04 -0.028 0.99 3.42 -0.122 -8.305
0.35259404100000324 -0.052 0.001 0.981 2.794 0.053 -7.863
0.36463029099999744 -0.044 -0.01 0.974 2.389 -1.809 -7.649
0.37672016599999836 -0.042 -0.012 0.975 2.565 -1.863 -8.198
0.3837172080000073 -0.03 -0.017 0.989 3.359 -1.557 -8.878
0.39598750000000393 -0.032 0.0 0.982 3.366 -0.702 -8.679
0.403293208000008 -0.047 0.012 0.98 3.603 -0.29 -8.29
0.4152780000000007 -0.043 0.012 0.986 3.298 -2.145 -8.519
0.4225498750000014 -0.039 0.034 0.989 2.969 -5.328 -8.16
0.43461445799999865 -0.028 0.024 0.964 1.794 -5.107 -8.573
0.4407274579999978 -0.028 0.017 0.981 1.168 -6.519 -9.786
0.45389179100000376 -0.018 0.006 1.009 2.71 -8.779 -10.366
0.46617349999999647 0.0 0.002 0.989 3.481 -9.779 -11.42
0.47342849999999714 0.016 0.014 0.968 2.466 -5.718 -13.076
0.4855157080000083 0.011 0.01 0.982 1.695 0.069 -12.305
0.4927486250000044 -0.028 0.005 0.989 1.931 1.435 -13.817
0.5046893749999981 -0.045 0.015 1.0 2.176 -2.099 -13.672
0.5118442910000027 -0.037 0.019 0.991 1.359 -6.16 -13.664
0.5240945830000072 -0.028 0.009 0.956 -1.16 -4.756 -14.405
0.536287999999999 -0.019 0.002 0.964 -2.229 0.618 -13.664
0.5431317080000042 -0.016 -0.02 0.978 -0.023 6.595 -12.244
0.5553087910000016 -0.067 -0.03 1.004 3.275 11.305 -10.962
0.5627020000000016 -0.125 -0.024 1.01 7.382 7.74 -6.756
0.5747870410000075 -0.12 0.0 1.014 11.076 -4.023 -6.046
0.5864943330000045 -0.112 0.021 0.979 12.168 -15.053 -5.237
0.5937936250000035 -0.086 0.04 0.913 8.931 -19.275 -3.901
0.6058938750000067 -0.064 0.054 0.902 3.595 -15.863 -2.679
0.6129412909999985 -0.042 0.029 0.952 0.229 -13.71 -3.374
0.6248665829999993 -0.035 0.001 1.007 -0.992 -14.275 -5.573
0.6322508749999969 -0.016 0.008 1.025 -1.076 -14.473 -7.885
0.6444774160000009 0.012 0.017 1.019 0.206 -12.107 -8.679
0.6565436249999976 0.03 0.026 1.011 1.626 -6.992 -9.069
0.6637754580000035 0.025 0.031 1.018 4.389 -1.069 -8.069
0.6761118330000073 -0.003 0.029 1.017 7.076 0.916 -5.969
0.6836275 0.003 0.036 1.0 7.038 0.267 -5.947
0.6955023750000038 -0.003 0.044 0.978 4.275 1.176 -7.977
0.7024927080000083 0.002 0.04 0.961 0.275 2.397 -10.397
0.715021500000006 -0.013 0.019 0.979 -2.405 3.74 -12.046
0.721751458 -0.037 0.004 0.991 -3.069 3.908 -13.084
0.7339581660000079 -0.052 0.009 1.019 -0.863 1.366 -12.061
0.7461389580000031 -0.056 0.032 1.024 1.901 -3.824 -10.634
0.7532783750000078 -0.071 0.038 1.0 3.198 -6.336 -8.145
0.7656517080000071 -0.057 0.027 1.004 4.221 -10.992 -7.221
0.773112458 -0.002 0.006 0.991 4.053 -13.336 -8.298
0.7846388749999988 -0.008 0.011 0.989 2.298 -11.458 -11.458
0.7968015830000041 -0.017 0.033 1.008 -0.145 -11.534 -12.0
0.8036614580000077 -0.001 0.014 1.013 -2.0 -11.641 -10.855
0.8204473750000005 0.017 0.003 1.023 -2.374 -10.267 -11.557
0.8227122079999987 0.013 0.008 1.023 -1.702 -10.214 -11.84
0.834844750000002 0.01 0.021 1.004 -0.122 -9.809 -11.641
0.8417826660000003 0.016 0.022 1.01 0.565 -8.977 -12.015
0.8542924160000069 0.01 0.028 0.996 1.122 -6.626 -12.954
0.866293749999997 0.01 0.021 1.032 2.053 -6.893 -14.328
0.8736952910000042 0.024 0.014 1.042 3.115 -6.092 -15.344
0.8858773750000069 0.023 0.026 1.012 3.229 -3.038 -15.351
0.8932329999999951 0.031 0.022 1.007 2.672 0.939 -16.176
0.905450958000003 0.017 0.028 1.008 2.473 4.168 -16.519
0.9127535829999971 -0.001 0.039 0.988 2.779 4.702 -15.679
0.9247675830000048 -0.009 0.021 0.994 2.908 4.328 -16.092
0.9367946659999973 -0.013 0.024 0.987 2.252 1.038 -17.832
0.944153 0.015 0.034 0.993 2.183 -0.954 -19.779
0.9564255829999979 -0.008 0.025 0.985 1.397 1.931 -20.626
0.9637291660000074 -0.009 0.024 1.0 1.321 3.336 -20.382
0.9756520410000036 -0.013 0.011 1.009 2.344 4.206 -19.115
0.9829785410000085 -0.026 0.016 1.004 2.931 4.817 -17.817
0.9950132499999995 -0.043 0.036 1.009 3.718 3.71 -15.519
1.0023542910000032 -0.039 0.046 1.003 4.672 -0.847 -13.824
1.014354707999999 -0.025 0.028 0.99 5.656 -4.504 -13.969
1.0263130000000018 -0.016 0.035 0.97 5.756 -7.802 -16.412
1.033455250000003 -0.017 0.05 0.96 4.802 -11.298 -18.313
1.0454212080000076 -0.005 0.057 0.967 3.282 -12.206 -18.756
1.0523359999999968 0.03 0.044 0.975 -0.313 -10.267 -20.153
1.0645843749999955 0.056 0.038 0.996 -3.0 -5.252 -21.359
1.076565500000001 0.056 -0.001 1.017 -2.504 3.947 -21.557
1.083843625 0.037 -0.011 1.038 -0.595 11.351 -21.969
1.0958619580000004 -0.009 0.006 1.036 2.756 13.145 -21.794
1.1029296660000085 -0.02 -0.011 1.047 6.618 9.115 -22.71
1.1151983750000056 -0.034 0.007 1.008 9.13 3.42 -24.397
1.1223313330000053 -0.029 0.05 0.969 8.679 2.191 -23.977
1.1343356250000056 -0.03 0.049 0.957 6.252 5.176 -23.87
1.146377041000008 -0.047 0.026 0.983 3.863 5.588 -24.847
1.1534843330000086 -0.056 0.028 0.974 1.267 3.809 -24.344
1.1657234999999986 -0.052 0.029 0.951 -0.885 4.809 -21.618
1.1727776660000018 -0.051 -0.005 0.956 -0.382 7.87 -19.626
1.1852659999999986 -0.065 -0.024 0.99 2.511 6.023 -19.733
1.1925297909999983 -0.115 0.017 0.969 6.053 0.221 -17.679
1.2038861249999968 -0.121 0.029 0.976 7.847 -10.58 -15.344
1.2162638329999993 -0.073 0.034 0.968 9.191 -19.321 -13.107
1.2233745409999983 -0.03 0.049 0.917 7.725 -20.008 -12.481
1.2352937499999967 -0.037 0.059 0.912 3.573 -16.435 -12.298
1.2422377080000047 -0.039 0.037 0.958 -0.221 -18.084 -13.443
1.2544983330000008 0.004 0.016 0.982 -3.328 -20.901 -16.634
1.266257041000003 0.023 -0.001 0.996 -3.718 -16.206 -19.71
1.2731241660000023 0.02 0.005 1.029 -2.023 -11.298 -19.046
1.2853630409999965 0.025 -0.002 1.014 1.725 -5.748 -18.489
1.2926458750000052 0.023 -0.003 1.025 5.786 -3.046 -18.328
1.3046839999999946 0.008 0.031 0.971 7.115 -0.473 -18.336
1.3108251660000008 -0.002 0.04 0.943 6.244 2.481 -18.443
1.3242546660000016 -0.023 0.022 0.942 4.542 0.763 -20.359
1.3361799999999988 -0.03 0.032 0.929 1.611 -1.969 -21.603
1.3431809160000086 -0.031 0.042 0.94 -1.099 -3.321 -22.099
1.355398582999996 -0.027 0.04 0.94 -3.351 -3.901 -22.832
1.3624272079999997 -0.011 0.057 0.949 -5.046 -4.794 -21.87
1.374524957999995 -0.007 0.045 0.951 -5.397 -1.901 -20.985
1.3865091659999962 0.005 0.016 0.975 -3.924 -1.122 -21.603
1.3933913750000073 -0.026 0.031 0.964 -1.84 -1.931 -21.252
1.4053867500000052 -0.051 0.021 0.987 0.214 -7.824 -21.687
1.412346999999997 -0.04 0.036 0.979 1.16 -16.779 -21.832
1.424339708000005 -0.015 0.054 0.976 -0.267 -18.885 -20.779
1.4363637080000018 0.021 0.055 0.97 -2.863 -16.366 -20.916
1.4432975 0.05 0.043 0.966 -5.565 -10.649 -22.977
1.4556733750000035 0.027 0.036 0.994 -6.656 -6.275 -24.588
1.4622981250000038 -0.007 0.05 1.022 -6.939 -6.13 -23.656
1.474579625000004 0.01 0.01 1.029 -5.153 -7.069 -23.145
1.481643708000007 0.008 0.006 1.023 -2.397 -4.855 -24.366
1.4938602499999973 -0.014 0.006 1.027 0.053 -5.0 -24.374
1.506090166000007 -0.016 0.024 1.034 1.321 -9.046 -24.382
1.5128639160000006 0.016 0.037 0.994 0.695 -10.0 -23.931
1.5250759999999985 0.001 0.048 0.957 -1.336 -5.244 -23.374
1.5321283749999992 -0.004 0.059 0.976 -3.71 -4.954 -23.473
1.544191374999997 -0.001 0.048 0.984 -5.099 -6.0 -23.298
1.5564052499999974 0.02 0.004 0.986 -4.489 -4.252 -24.298
1.5635122500000023 -0.026 0.0 1.011 -2.634 -1.603 -24.069
1.5756700000000023 -0.026 0.015 1.022 0.038 -5.672 -22.832
1.5824295830000068 -0.038 0.013 1.005 1.771 -8.779 -21.214
1.5947961659999947 -0.015 0.024 0.975 1.656 -10.489 -20.527
1.6024475410000036 0.009 0.044 0.959 0.969 -8.924 -19.71
1.6141716249999973 -0.007 0.043 0.95 -1.099 -6.58 -19.046
1.6260855409999948 -0.012 0.041 0.974 -3.267 -8.29 -18.809
1.6335459160000028 0.02 -0.002 1.006 -2.42 -9.168 -20.786
1.6454196250000024 0.011 0.016 0.979 -2.328 -8.328 -23.252
1.652458291000002 -0.019 0.044 0.976 -3.771 -5.382 -21.878
1.6644868750000086 -0.033 0.035 0.994 -5.023 -6.351 -20.603
1.6762255830000043 -0.027 0.042 1.002 -5.733 -8.58 -20.061
1.683617041000005 -0.026 0.036 1.009 -5.015 -8.603 -18.389
1.695305458000007 -0.033 0.017 1.025 -3.519 -8.939 -16.42
1.7020851660000034 -0.01 -0.018 1.05 -0.71 -10.489 -15.794
1.7149287910000055 0.009 0.002 1.031 1.542 -13.076 -18.336
1.7266497079999965 0.01 0.049 1.012 0.985 -13.092 -18.267
1.733753415999999 0.028 0.037 1.017 -0.328 -10.832 -18.817
1.7455624159999985 0.038 0.04 1.025 -1.061 -7.458 -19.153
1.7526979160000025 0.021 0.028 1.029 -0.748 -5.695 -19.0
1.765102374999998 0.016 0.013 1.021 0.267 -5.031 -18.779
1.7724321660000015 0.01 0.018 1.016 0.908 -2.626 -18.229
1.7845929160000082 0.028 0.003 1.031 2.023 0.099 -17.954
1.7969512079999959 0.015 0.034 1.007 3.229 2.176 -18.0
1.8041154579999983 0.008 0.053 0.986 3.901 4.718 -16.595
1.8163230830000003 0.005 0.044 0.988 4.29 4.061 -15.809
1.8232924579999974 0.05 0.027 0.991 3.427 3.176 -19.45
1.835844166000001 0.036 0.046 0.989 1.847 0.748 -22.29
1.8433237079999998 0.041 0.051 0.965 0.198 -0.031 -22.71
1.8551064159999981 0.036 0.049 0.98 -1.534 1.023 -22.458
1.8624587500000018 -0.002 0.064 0.976 -2.473 0.496 -21.305
1.8740677079999983 -0.035 0.058 1.005 -2.71 -2.481 -17.832
1.8863777500000083 -0.004 0.03 1.016 -1.626 -6.023 -15.924
1.893548457999998 0.05 0.032 1.017 0.099 -5.298 -16.794
1.9054952500000013 0.042 0.026 1.015 2.954 -2.13 -17.74
1.9127661659999973 0.037 0.037 1.024 4.756 -2.878 -18.412
1.9250742910000014 0.035 0.056 1.008 4.824 -5.366 -19.069
1.9323392910000052 0.041 0.054 0.984 3.389 -6.763 -20.855
1.9443512910000038 0.061 0.067 0.985 1.985 -3.954 -20.542
1.9563668330000041 0.038 0.058 0.991 0.069 -2.779 -19.076
1.963693500000005 0.037 0.061 0.994 -1.389 -2.756 -18.42
1.9757167500000037 0.04 0.031 1.002 -1.504 -1.443 -19.031
1.9830639999999988 0.037 0.031 0.995 -0.916 -1.061 -19.901
1.9950079160000058 0.027 0.032 0.999 0.977 0.542 -18.695
2.002333415999999 0.015 0.033 0.984 2.328 -0.214 -17.13
2.0146778330000075 0.008 0.052 0.992 2.466 -1.412 -15.328
2.0266087500000083 0.024 0.073 0.986 0.916 -2.832 -14.45
2.033915625000006 0.044 0.058 0.996 0.557 -3.412 -15.427
2.045938665999998 0.032 0.045 0.993 0.763 -4.42 -17.046
2.0533021659999946 0.025 0.057 0.992 -0.015 -6.84 -17.29
2.0652581660000067 0.039 0.038 0.976 -0.916 -7.122 -18.641
2.0725224579999946 0.02 0.033 0.979 -1.893 -5.168 -20.069
2.0843128329999985 -0.035 0.037 1.008 -2.053 -7.893 -19.954
2.0963825830000076 -0.028 0.029 1.014 -2.74 -13.618 -19.084
2.1034707499999996 -0.049 0.035 1.02 -2.389 -14.641 -17.374
2.1152344999999997 -0.042 0.01 1.04 0.969 -19.466 -15.298
2.122557291000007 -0.033 0.031 1.019 3.145 -23.611 -11.519
2.1347476659999955 -0.003 0.047 0.976 3.275 -23.313 -7.069
2.1465880000000084 0.035 0.039 0.984 1.725 -23.366 -6.076
2.1540050830000013 0.06 0.035 1.023 1.84 -24.466 -7.489
2.16592 0.059 0.036 1.018 2.969 -25.244 -8.504
2.1732484999999997 0.032 0.048 0.99 2.145 -26.412 -6.908
2.1854972499999974 0.058 0.045 1.023 0.573 -29.229 -6.282
2.192582291000008 0.076 0.024 1.001 -0.252 -31.282 -8.603
2.204580875000005 0.082 0.047 0.999 -0.611 -29.763 -7.603
2.2107945409999985 0.107 0.042 1.044 1.145 -29.389 -6.092
2.224172374999995 0.131 0.019 1.041 3.008 -26.046 -6.382
2.236167082999998 0.134 0.05 1.041 4.344 -25.397 -7.435
2.2434352909999973 0.169 0.051 1.015 4.336 -22.534 -8.458
2.2555480000000045 0.221 0.028 0.991 4.26 -15.55 -11.962
2.2628411250000084 0.214 0.046 0.999 2.794 -7.366 -15.603
2.2747647500000028 0.204 0.049 0.992 2.015 -4.321 -19.183
2.282369083000006 0.194 0.035 0.965 0.786 0.122 -22.885
2.294411083 0.17 0.055 0.93 -2.099 6.015 -25.252
2.306357625000004 0.077 0.074 0.951 -5.435 10.267 -23.824
2.3136714160000054 0.023 0.058 0.99 -6.695 5.473 -20.412
2.325705499999998 0.084 -0.011 0.997 -2.687 -0.061 -22.443
2.332873540999998 0.064 0.028 0.98 -0.321 -0.137 -25.87
2.3448354580000057 0.074 0.067 0.966 -0.427 -1.962 -24.641
2.3521322910000038 0.123 0.019 0.946 -0.55 -0.107 -25.069
2.364107125000004 0.131 0.011 0.914 -1.802 7.221 -28.168
2.3761317080000026 0.054 0.035 0.933 -3.366 12.053 -27.756
2.3834482500000007 -0.007 0.046 0.937 -5.595 8.405 -23.931
2.3955292499999956 -0.004 0.036 0.935 -7.847 4.16 -22.695
2.4027630829999964 -0.03 0.051 0.949 -9.855 2.817 -21.527
2.414658375000002 -0.01 0.048 0.97 -10.725 -0.809 -18.733
2.426611915999999 0.038 -0.011 1.004 -8.031 -3.702 -19.794
2.4336518749999954 0.05 0.025 0.984 -7.458 -4.809 -23.389
2.445687332999995 0.055 0.074 0.964 -7.069 -2.611 -21.275
2.452993875000004 0.062 0.034 0.966 -5.809 2.519 -19.74
2.465328458000002 0.021 0.037 0.977 -5.023 5.321 -17.809
2.472661208000005 0.008 0.054 0.998 -4.221 3.756 -16.099
2.4846057080000037 -0.014 0.039 0.987 -4.771 0.214 -16.779
2.4963674159999982 -0.034 0.044 0.974 -7.527 -4.061 -18.618
2.503503416000001 -0.058 0.072 0.978 -10.916 -7.267 -17.893
