Time AX AY AZ GX GY GZ
0.020025332999999534 0.129 -0.185 0.939 -1.618 0.176 -0.573
0.02710683299999772 0.14 -0.175 0.951 -1.824 -0.336 -0.023
0.03953412500000297 0.136 -0.179 0.952 -3.16 0.351 0.382
0.051713915999997084 0.133 -0.176 0.949 -2.74 0.489 -0.351
0.05904362500000104 0.126 -0.185 0.941 -1.573 0.206 -0.29
0.07146441599999775 0.127 -0.192 0.959 0.351 0.466 -0.458
0.07855808299999723 0.139 -0.195 0.955 0.42 0.069 -1.153
0.09099991600000124 0.139 -0.181 0.952 0.229 -1.305 -0.992
0.09835487499999829 0.148 -0.17 0.945 -0.802 -1.618 -0.481
0.11038649999999706 0.154 -0.175 0.961 -3.023 -1.763 -0.145
0.11787383299999732 0.148 -0.174 0.967 -4.534 0.313 0.038
0.1301074160000013 0.138 -0.194 0.963 -5.145 1.092 0.137
0.13763745800000038 0.137 -0.202 0.973 -3.122 0.985 0.076
0.14972399999999908 0.128 -0.203 0.954 -1.321 0.389 -0.282
0.16193787499999956 0.132 -0.202 0.962 0.756 -0.389 -1.092
0.16919770799999867 0.136 -0.192 0.967 0.847 -0.634 -1.389
0.1814745000000002 0.141 -0.176 0.965 -0.107 -0.198 -1.573
0.1887896249999983 0.135 -0.18 0.96 -1.679 0.214 -0.962
0.20101162499999958 0.132 -0.188 0.974 -1.603 0.084 -1.015
0.20830262500000174 0.139 -0.199 0.977 -0.687 0.84 -1.214
0.2205918330000003 0.142 -0.203 0.966 -0.115 1.313 -1.542
0.2278806249999974 0.144 -0.188 0.967 -0.443 1.664 -1.779
0.24009645800000357 0.143 -0.182 0.951 0.763 0.656 -1.542
0.24759641600000037 0.14 -0.177 0.947 0.26 0.153 -1.427
0.25964145799999727 0.147 -0.176 0.957 -1.527 0.702 -1.115
0.2718989159999978 0.147 -0.179 0.963 -2.069 1.435 -0.359
0.2794657080000036 0.144 -0.19 0.961 -1.649 1.046 0.252
0.29167420800000343 0.15 -0.199 0.955 -1.107 0.282 0.252
0.29899462499999885 0.145 -0.198 0.954 -0.427 -0.427 -0.29
0.31105329100000034 0.151 -0.194 0.953 -0.679 -1.366 -0.328
0.31820587500000386 0.153 -0.176 0.951 -2.008 -2.26 -0.931
0.3304918749999999 0.15 -0.168 0.953 -4.893 -1.771 -1.908
0.3376664999999974 0.145 -0.159 0.952 -6.855 -1.496 -1.344
0.34992116600000145 0.146 -0.176 0.955 -7.061 -0.885 -2.176
0.36187591600000246 0.135 -0.182 0.963 -6.779 0.855 -3.863
0.3694882500000034 0.118 -0.183 0.955 -4.954 2.435 -4.237
0.38144566599999763 0.121 -0.188 0.952 -1.992 4.573 -4.13
0.3889335410000001 0.109 -0.217 0.962 1.344 6.198 -4.733
0.40122399999999914 0.137 -0.209 0.97 1.435 7.519 -5.534
0.40874512500000293 0.142 -0.217 0.966 1.916 8.015 -6.397
0.4210895410000006 0.127 -0.222 0.975 4.046 6.115 -5.237
0.4282090000000025 0.158 -0.219 0.988 3.565 6.954 -6.198
0.44072966600000285 0.161 -0.219 1.01 1.695 5.885 -6.282
0.44813345800000093 0.155 -0.195 0.994 -0.947 7.191 -6.977
0.46016395800000254 0.13 -0.192 0.995 -4.489 7.939 -7.298
0.467620832999998 0.094 -0.198 0.99 -5.702 7.366 -7.351
0.47973820800000055 0.074 -0.185 0.986 -7.183 6.84 -8.519
0.4920079159999986 0.029 -0.186 0.979 -5.847 4.962 -8.977
0.4992016659999976 -0.047 -0.19 0.965 -1.321 0.504 -8.939
0.5112562500000024 -0.117 -0.173 0.97 1.832 -5.298 -9.695
0.5187359159999971 -0.194 -0.219 1.051 12.16 -11.336 -3.786
0.530346999999999 -0.242 -0.176 1.129 15.336 -10.489 0.595
0.5378571250000022 -0.314 -0.126 1.181 14.382 -9.374 4.496
0.5499069580000011 -0.444 -0.073 1.12 12.458 -15.779 8.756
0.5618606660000012 -0.49 0.018 1.12 -3.412 -17.977 15.252
0.568984915999998 -0.621 0.018 1.126 -17.916 -14.794 9.802
0.5810072909999988 -0.694 -0.024 1.143 -40.611 -5.031 11.069
0.5882975410000029 -0.852 -0.123 1.095 -39.176 7.42 18.489
0.600111916000003 -1.023 -0.216 1.024 -16.328 17.534 29.718
0.6073965000000001 -1.13 -0.212 0.895 17.84 21.038 37.588
0.6194160000000011 -1.118 -0.327 0.891 55.397 15.382 29.672
0.6315150000000003 -0.965 -0.448 0.909 105.557 4.809 22.092
0.6386785830000008 -0.977 -0.544 0.943 133.069 -2.893 53.115
0.6506761250000039 -0.709 -0.423 0.945 126.634 -1.687 72.0
0.6576764579999974 -0.587 -0.25 0.913 116.053 -12.389 69.718
0.6696878329999976 -0.341 -0.275 0.928 90.878 -7.939 46.183
0.6818218749999971 -0.098 -0.187 1.015 23.405 -15.557 69.954
0.6888490409999974 -0.128 -0.219 0.914 -6.313 -33.824 69.557
0.7006123330000023 -0.12 -0.114 0.782 -35.382 -30.366 70.321
0.7079580830000012 0.03 0.003 0.737 -50.115 -29.901 72.817
0.7197995830000039 -0.113 -0.085 0.541 -63.046 -31.641 78.519
0.7317780409999983 0.161 -0.038 0.572 -63.45 -31.962 86.771
0.7388485000000031 0.176 -0.31 0.662 -49.16 -39.656 100.405
0.7506185829999978 0.386 -0.37 0.765 -33.336 -31.901 101.916
0.7579359579999974 0.551 -0.349 0.787 -20.214 -30.069 85.282
0.7700342079999984 0.575 -0.543 0.931 -2.695 -29.336 76.183
0.782014083 0.671 -0.455 0.962 0.374 -19.817 64.305
0.7892802909999972 0.703 -0.382 0.874 7.183 -17.84 41.802
0.8013268329999974 0.842 -0.312 0.892 3.779 -14.489 31.863
0.8086491250000023 0.848 -0.319 0.871 -15.038 -7.0 28.573
0.8206924999999998 0.884 -0.282 0.857 -31.008 -1.679 31.008
0.8280227910000022 0.786 -0.302 0.686 -46.275 8.992 29.489
0.839991083000001 0.721 -0.281 0.589 -65.321 14.969 28.908
0.8520222499999974 0.603 -0.328 0.456 -64.176 9.153 27.069
0.8592981250000022 0.599 -0.305 0.461 -50.489 2.924 30.786
0.8713215000000005 0.602 -0.343 0.487 -35.099 -2.641 32.878
0.8787864160000041 0.652 -0.344 0.543 -27.031 -8.55 32.229
0.8906694160000015 0.736 -0.381 0.682 -25.656 -8.893 27.863
0.8980260410000014 0.737 -0.413 0.746 -26.45 -3.45 26.145
0.9099994999999979 0.718 -0.392 0.748 -18.687 0.305 22.427
0.9220316250000025 0.635 -0.367 0.744 -12.122 0.74 21.061
0.9292981250000025 0.575 -0.379 0.704 -4.198 -3.908 19.237
0.9415963750000031 0.535 -0.333 0.66 6.611 -9.786 14.641
0.9488795830000001 0.559 -0.261 0.658 14.275 -20.084 19.557
0.9609249160000033 0.534 -0.229 0.66 7.756 -20.267 17.534
0.9681861660000024 0.558 -0.159 0.72 -7.557 -18.16 15.817
0.9799723329999992 0.628 -0.171 0.784 -19.374 -21.87 15.809
0.9919959160000005 0.604 -0.193 0.799 -25.672 -25.977 13.298
0.9989862910000014 0.564 -0.226 0.875 -25.779 -28.282 9.84
1.0112482500000013 0.559 -0.242 0.915 -27.588 -27.534 6.595
1.0179694580000032 0.531 -0.253 0.922 -27.061 -25.679 3.237
1.0301673749999978 0.526 -0.264 0.953 -29.313 -22.16 -0.275
1.036897500000002 0.5 -0.273 0.962 -30.122 -18.977 -0.901
1.0492207910000033 0.495 -0.31 1.014 -29.26 -16.176 -1.939
1.0614833329999982 0.512 -0.321 1.054 -27.504 -14.397 -3.916
1.0682220409999985 0.494 -0.333 1.061 -25.244 -15.031 -5.435
1.080500291 0.475 -0.327 1.061 -23.145 -17.183 -9.023
1.0872538329999983 0.463 -0.344 1.061 -20.573 -18.458 -12.13
1.0993048750000014 0.463 -0.344 1.079 -22.252 -16.786 -14.634
1.1112415830000018 0.436 -0.37 1.081 -22.244 -14.939 -16.168
1.1180305000000033 0.443 -0.387 1.091 -20.099 -11.305 -16.809
1.130357625000002 0.441 -0.396 1.114 -23.504 -7.481 -16.275
1.1371657079999977 0.432 -0.39 1.113 -24.176 -5.084 -15.069
1.149332041000001 0.425 -0.387 1.095 -23.733 -4.618 -15.046
1.1615972909999996 0.397 -0.372 1.069 -19.763 -7.695 -16.42
1.168686416 0.398 -0.366 1.064 -17.092 -10.832 -18.351
1.1805060829999974 0.408 -0.38 1.088 -17.847 -10.817 -18.985
1.1875340830000027 0.419 -0.368 1.12 -19.847 -7.26 -18.458
1.1995478750000004 0.401 -0.369 1.111 -20.771 -3.366 -17.023
1.2115855830000015 0.385 -0.355 1.072 -21.985 -1.13 -16.832
1.2186267499999985 0.366 -0.433 1.061 -23.527 0.641 -19.954
1.2306382499999984 0.354 -0.373 1.027 -26.916 4.45 -18.832
1.2380162079999977 0.335 -0.39 1.036 -21.015 3.725 -20.832
1.2499880000000019 0.351 -0.379 1.048 -18.794 6.595 -20.817
1.2619893330000025 0.329 -0.398 1.006 -16.176 3.878 -18.863
1.269311583000004 0.366 -0.35 1.02 -15.87 6.145 -19.13
1.2813941249999985 0.372 -0.337 1.015 -16.611 8.618 -20.282
1.2884519999999995 0.326 -0.376 0.995 -18.298 8.931 -18.832
1.3004398329999987 0.317 -0.4 0.999 -19.313 12.534 -20.733
1.307534957999998 0.3 -0.423 1.01 -14.794 16.885 -21.985
1.3196677500000007 0.255 -0.415 1.005 -7.053 19.504 -23.672
1.331861332999999 0.257 -0.394 0.985 1.405 19.992 -25.885
1.3391121659999996 0.262 -0.357 0.983 3.84 19.313 -27.015
1.351084415999999 0.242 -0.338 0.94 6.023 17.557 -27.977
1.358432833000002 0.241 -0.349 0.945 7.191 14.008 -27.71
1.3704834580000025 0.265 -0.35 0.969 6.359 13.176 -26.855
1.3777275830000022 0.265 -0.358 0.978 3.733 13.649 -25.359
1.3900242910000031 0.242 -0.34 0.981 0.527 14.878 -24.771
1.4020037080000023 0.225 -0.311 0.952 -3.718 15.863 -21.763
1.4090987909999981 0.192 -0.3 0.919 -6.115 16.443 -21.908
1.4210640000000012 0.17 -0.312 0.888 -6.702 16.061 -23.794
1.4285014160000031 0.164 -0.343 0.909 -0.313 14.893 -23.947
1.440363290999997 0.176 -0.367 0.933 4.496 14.229 -25.786
1.4476722080000002 0.183 -0.365 0.951 6.481 14.534 -25.046
1.4599277499999985 0.18 -0.352 0.943 7.87 13.588 -25.198
1.4719190409999996 0.176 -0.337 0.924 7.802 11.87 -24.458
1.4792024159999997 0.163 -0.327 0.899 6.756 8.718 -24.954
1.491505666000002 0.148 -0.308 0.897 4.313 6.939 -25.321
1.498744000000002 0.154 -0.311 0.913 2.344 7.496 -24.267
1.5110070409999992 0.144 -0.311 0.906 0.328 8.405 -23.16
1.51830425 0.129 -0.317 0.903 0.084 8.847 -22.748
1.530467999999999 0.115 -0.312 0.889 0.756 8.374 -22.779
1.5375557910000026 0.129 -0.325 0.893 2.695 6.924 -23.496
1.549869583000003 0.13 -0.318 0.898 4.443 4.664 -23.748
1.5567844159999993 0.13 -0.314 0.894 5.534 1.718 -24.321
1.5693466250000014 0.124 -0.31 0.889 4.969 0.649 -23.763
1.5816685830000026 0.134 -0.325 0.903 5.824 -0.267 -22.809
1.5888817499999988 0.145 -0.326 0.933 7.061 0.397 -21.824
1.6011519159999992 0.163 -0.313 0.945 5.878 2.069 -19.504
1.6083909159999976 0.167 -0.301 0.929 5.221 3.115 -18.771
1.6206458329999975 0.171 -0.299 0.917 2.023 3.885 -18.267
1.627636250000002 0.173 -0.296 0.921 -0.443 4.282 -18.374
1.6401755409999978 0.151 -0.309 0.897 -2.221 4.008 -18.74
1.6472091660000032 0.142 -0.299 0.906 -2.282 4.42 -18.672
1.659427291 0.128 -0.304 0.888 -0.832 3.74 -18.954
1.671776041000001 0.132 -0.305 0.884 -1.26 3.443 -17.962
1.6787335409999997 0.144 -0.301 0.889 -1.282 3.702 -16.908
1.6911208750000029 0.148 -0.305 0.903 -1.534 4.885 -14.901
1.6998440409999986 0.146 -0.315 0.902 -1.435 5.206 -13.855
1.710462083000003 0.149 -0.316 0.907 1.573 4.779 -14.481
1.717604915999999 0.168 -0.313 0.921 1.802 4.954 -13.969
1.7301357079999988 0.18 -0.308 0.926 -1.015 5.74 -13.763
1.7368700000000032 0.183 -0.303 0.918 -3.786 6.763 -12.481
1.7491288750000038 0.173 -0.32 0.94 -5.802 8.214 -10.107
1.7616872910000012 0.161 -0.318 0.927 -5.183 8.573 -11.137
1.7686111249999996 0.161 -0.327 0.909 -2.542 7.687 -11.122
1.7808987909999985 0.166 -0.33 0.915 0.802 6.626 -12.855
1.7882017909999988 0.169 -0.322 0.938 4.015 6.183 -14.168
1.8003989999999988 0.189 -0.311 0.947 3.252 7.214 -13.771
1.8076502910000016 0.191 -0.299 0.933 1.115 8.74 -12.435
1.820080040999997 0.188 -0.297 0.92 -2.641 10.107 -11.221
1.8269355409999974 0.184 -0.304 0.919 -6.244 10.847 -9.443
1.8393157080000009 0.182 -0.312 0.917 -8.763 11.817 -8.0
1.8514047910000002 0.158 -0.334 0.909 -7.763 11.649 -7.42
1.858616375000004 0.155 -0.326 0.906 -5.069 11.031 -9.115
1.8709775000000022 0.147 -0.312 0.905 -1.817 9.58 -8.992
1.8780086659999995 0.156 -0.291 0.904 -1.58 8.321 -9.557
1.8905087500000022 0.162 -0.28 0.907 -3.481 7.405 -8.985
1.897516207999999 0.163 -0.278 0.891 -5.458 6.885 -8.244
1.9100387080000019 0.177 -0.291 0.906 -7.763 7.641 -8.397
1.9170057500000013 0.163 -0.29 0.915 -9.733 6.725 -7.618
1.9294717909999974 0.167 -0.308 0.91 -8.74 5.885 -8.221
1.9419846660000033 0.173 -0.307 0.897 -7.695 7.237 -8.763
1.9489617500000023 0.17 -0.324 0.915 -5.763 9.282 -7.817
1.961269332999997 0.183 -0.317 0.923 -5.435 10.969 -7.481
1.968262291000002 0.15 -0.317 0.918 -2.008 12.397 -7.061
1.980681791000002 0.169 -0.321 0.908 -1.389 12.595 -7.664
1.987811083000004 0.167 -0.311 0.908 -0.756 12.458 -7.87
1.9999849160000025 0.163 -0.315 0.923 -1.595 11.634 -7.809
