Time AX AY AZ GX GY GZ
0.01423241700001654 -0.066 -0.459 0.9 -0.802 -2.473 0.916
0.02632079200000703 -0.079 -0.474 0.892 -1.382 -2.618 1.527
0.03845812500000534 -0.095 -0.465 0.88 -3.26 -3.176 2.153
0.045774166999990484 -0.091 -0.46 0.883 -3.397 -3.511 2.053
0.05789762500000961 -0.083 -0.466 0.893 -1.618 -3.87 2.656
0.06508770799999297 -0.081 -0.466 0.887 0.069 -3.832 3.198
0.0771374170000172 -0.094 -0.472 0.892 2.382 -3.412 3.939
0.0843806670000049 -0.078 -0.476 0.877 3.13 -3.771 5.023
0.09670341700001472 -0.08 -0.443 0.879 1.26 -4.351 4.076
0.10869808300000727 -0.073 -0.441 0.886 0.527 -3.916 2.229
0.11597066699999914 -0.051 -0.441 0.901 0.519 -4.282 2.863
0.1280106250000017 -0.053 -0.431 0.895 -0.267 -3.481 3.282
0.13531887499999584 -0.054 -0.431 0.896 -1.55 -2.649 3.214
0.14730954200001634 -0.051 -0.418 0.907 -2.954 -1.74 2.74
0.1543482499999982 -0.049 -0.407 0.896 -3.855 -0.87 2.382
0.16666420800001447 -0.044 -0.421 0.913 -1.809 0.679 2.0
0.17866424999999708 -0.068 -0.423 0.878 -0.611 0.779 2.198
0.18596120800000904 -0.076 -0.408 0.869 0.122 0.954 2.427
0.19820770800001242 -0.079 -0.416 0.864 -0.137 0.481 0.107
0.20556495799999652 -0.078 -0.414 0.869 -0.145 0.0 0.405
0.21755133300001717 -0.079 -0.41 0.853 0.519 -1.611 -1.718
0.22461854200000175 -0.061 -0.427 0.862 2.809 -1.756 -2.687
0.23661187499999414 -0.052 -0.425 0.872 1.58 -1.71 -1.031
0.24865695799999799 -0.062 -0.412 0.859 0.145 -1.221 -0.885
0.2559662500000002 -0.074 -0.406 0.842 -0.824 -1.519 -1.649
0.2677786250000054 -0.055 -0.374 0.852 -4.954 -2.931 -2.214
0.27513258300001553 -0.044 -0.375 0.864 -4.573 -2.618 -4.847
0.2868483329999947 -0.044 -0.362 0.873 -4.74 -2.832 -5.771
0.2942671670000152 -0.027 -0.35 0.862 -4.908 -2.397 -8.221
0.3059773330000155 -0.018 -0.364 0.882 -4.237 -2.336 -10.656
0.3177532079999992 -0.003 -0.358 0.885 -2.038 -1.466 -11.962
0.3248689170000034 -0.003 -0.364 0.907 -1.336 -1.298 -13.389
0.33688562500000785 -0.002 -0.385 0.918 -1.298 -0.962 -14.733
0.3428844999999967 0.01 -0.412 0.936 -0.511 0.168 -15.641
0.35632325000000264 0.01 -0.429 0.97 1.107 2.336 -17.786
0.36823108300001195 0.002 -0.466 0.991 2.588 3.641 -18.992
0.3755379170000026 0.0 -0.494 1.011 3.015 5.313 -18.595
0.3875895420000006 -0.02 -0.501 1.032 1.58 7.55 -19.634
0.3946502500000122 -0.053 -0.506 1.048 -2.153 9.244 -19.763
0.4066743330000122 -0.067 -0.511 1.078 -3.916 11.863 -19.183
0.41847162499999513 -0.099 -0.503 1.073 -4.885 15.229 -20.076
0.42553729200000134 -0.145 -0.537 1.09 -5.893 16.924 -19.015
0.43729091700001277 -0.157 -0.567 1.079 -4.504 18.962 -17.183
0.44438616700000466 -0.218 -0.598 1.074 -1.489 19.656 -15.702
0.456426332999996 -0.225 -0.625 1.084 0.992 20.901 -10.947
0.4684326249999913 -0.275 -0.645 1.055 0.206 18.84 -9.42
0.47573904200001493 -0.246 -0.633 1.071 0.802 18.504 -3.0
0.4877830830000107 -0.295 -0.668 1.041 3.588 16.458 -4.511
0.4950997500000085 -0.261 -0.645 1.045 4.061 16.588 3.29
0.5071563749999939 -0.304 -0.638 1.014 6.58 15.321 2.878
0.5144499170000074 -0.272 -0.624 1.014 12.992 16.191 6.336
0.5264891250000119 -0.304 -0.618 0.955 18.382 14.809 6.641
0.5384668330000011 -0.308 -0.6 0.95 26.031 13.931 4.847
0.5455152920000046 -0.25 -0.569 0.939 37.168 13.779 8.405
0.5575348330000054 -0.266 -0.588 0.899 35.511 10.916 7.824
0.5648530830000027 -0.269 -0.558 0.87 36.969 10.328 12.527
0.5769016670000156 -0.288 -0.555 0.863 41.824 7.74 13.832
0.5829911250000066 -0.299 -0.548 0.888 46.748 4.687 18.718
0.5961279999999931 -0.322 -0.519 0.861 48.687 2.443 20.924
0.6081617920000042 -0.342 -0.532 0.847 50.153 -0.267 23.115
0.6152491249999912 -0.328 -0.543 0.852 48.382 -5.382 28.679
0.6272401669999965 -0.314 -0.508 0.842 46.893 -8.061 33.351
0.6345671670000002 -0.305 -0.49 0.81 43.489 -11.466 36.176
0.6461055000000044 -0.268 -0.464 0.809 38.588 -14.511 40.435
0.6581610830000102 -0.242 -0.425 0.788 35.328 -16.45 44.763
0.6652942080000059 -0.235 -0.395 0.76 31.252 -19.412 47.13
0.6769319580000115 -0.213 -0.401 0.766 31.519 -21.832 49.076
0.6887380420000113 -0.186 -0.372 0.752 29.58 -24.359 52.649
0.6958392500000059 -0.18 -0.345 0.717 26.008 -26.076 53.939
0.707889458000011 -0.143 -0.339 0.707 20.634 -27.542 55.618
0.7149450830000035 -0.119 -0.316 0.725 15.237 -25.16 56.84
0.726744999999994 -0.057 -0.294 0.724 18.885 -26.29 54.206
0.7386740830000065 -0.032 -0.28 0.698 14.656 -27.573 53.649
0.7455361670000116 -0.011 -0.277 0.708 10.756 -27.305 52.794
0.7575184579999927 0.012 -0.259 0.719 7.908 -24.634 52.481
0.7648305419999986 0.014 -0.261 0.726 4.038 -25.878 49.519
0.7769079580000096 0.057 -0.276 0.726 3.069 -24.939 50.351
0.7842646670000022 0.09 -0.288 0.729 0.55 -24.275 51.221
0.7960054579999962 0.086 -0.257 0.715 -1.122 -21.42 51.351
0.8080220829999973 0.081 -0.253 0.693 -5.947 -20.221 48.802
0.8152359169999954 0.085 -0.22 0.681 -12.008 -20.985 46.573
0.82690333299999 0.085 -0.193 0.692 -15.954 -20.481 45.237
0.8330283330000157 0.081 -0.16 0.69 -20.328 -20.718 44.55
0.8460554170000023 0.083 -0.161 0.697 -21.878 -20.687 42.634
0.8578367920000005 0.096 -0.169 0.708 -22.366 -20.458 40.939
0.8648954170000138 0.115 -0.195 0.734 -20.489 -20.664 38.344
0.8766908329999978 0.122 -0.21 0.738 -19.71 -20.282 36.015
0.8887420000000077 0.131 -0.183 0.743 -22.305 -21.053 32.389
0.8957573330000059 0.145 -0.175 0.773 -23.29 -20.145 27.969
0.9075713329999928 0.171 -0.156 0.78 -29.527 -19.13 26.832
0.9146224170000039 0.177 -0.134 0.799 -32.756 -16.832 24.046
0.9264092920000166 0.189 -0.16 0.806 -33.534 -13.939 20.275
0.9384445420000134 0.168 -0.176 0.796 -34.443 -13.344 17.305
0.945593792000011 0.156 -0.206 0.789 -34.321 -13.473 14.092
0.9573149169999908 0.162 -0.212 0.796 -35.176 -13.786 11.947
0.9644263330000058 0.183 -0.197 0.824 -40.328 -13.122 10.527
0.9764323329999911 0.183 -0.229 0.835 -43.809 -8.756 10.534
0.9884697920000178 0.186 -0.218 0.849 -53.435 -8.382 9.137
0.9955375000000117 0.187 -0.208 0.861 -58.359 -7.527 6.45
1.0074695419999955 0.173 -0.198 0.846 -62.496 -4.183 1.107
1.014668625000013 0.174 -0.194 0.877 -66.076 -2.008 -5.198
1.026568416999993 0.188 -0.222 0.891 -68.74 -1.26 -8.595
1.0386384999999905 0.178 -0.259 0.902 -66.359 0.924 -10.603
1.0453480829999933 0.17 -0.311 0.881 -61.137 1.809 -13.443
1.057674249999991 0.154 -0.354 0.865 -58.443 0.771 -14.763
1.0643724170000155 0.123 -0.379 0.878 -52.763 0.168 -17.145
1.0766874999999914 0.119 -0.393 0.918 -51.214 0.023 -20.221
1.0823013750000143 0.135 -0.375 0.976 -44.191 1.267 -20.695
1.095653083000002 0.143 -0.387 1.008 -37.924 1.962 -21.748
1.1079026669999905 0.121 -0.365 1.004 -32.725 2.237 -25.053
1.114711916999994 0.116 -0.307 0.987 -34.031 -0.115 -33.244
1.126661917000007 0.116 -0.355 1.019 -25.275 2.504 -43.427
1.1337972080000043 0.115 -0.434 1.062 -17.542 3.58 -46.527
1.145807375000004 0.083 -0.464 1.062 -10.885 5.252 -46.267
1.1579879580000068 0.045 -0.451 1.053 -0.618 3.603 -48.015
1.165105374999996 0.024 -0.443 1.082 21.282 -1.809 -49.695
1.176996250000002 0.06 -0.443 1.095 28.298 -4.473 -51.176
1.184504583000006 0.078 -0.447 1.158 35.832 -5.198 -52.42
1.1962862919999964 0.069 -0.44 1.17 38.893 -5.626 -52.748
1.208240332999992 0.04 -0.435 1.154 39.122 -7.214 -55.595
1.2152516670000182 0.037 -0.483 1.167 37.885 -9.076 -56.13
1.227337833000007 0.026 -0.513 1.198 38.328 -10.336 -55.084
1.2344101250000108 0.059 -0.536 1.248 35.481 -10.939 -48.908
1.2462351249999983 -0.012 -0.51 1.187 23.588 -12.901 -44.046
1.2580076250000047 0.039 -0.465 1.21 11.786 -12.351 -40.206
1.2650866669999914 0.019 -0.49 1.216 -1.489 -8.672 -45.702
1.2771173750000173 0.065 -0.461 1.24 -18.687 -2.397 -40.748
1.2842369999999903 0.044 -0.477 1.244 -23.718 3.504 -44.084
1.2959832920000167 0.041 -0.494 1.252 -22.191 10.168 -41.45
1.3077507499999967 -0.037 -0.531 1.189 -17.954 10.618 -39.366
1.3148907080000072 -0.043 -0.557 1.167 -8.74 12.947 -39.427
1.326889417000018 -0.081 -0.581 1.12 -2.366 11.298 -37.557
1.3386492079999925 -0.06 -0.582 1.054 2.031 11.298 -38.046
1.3460083330000145 -0.067 -0.589 1.072 3.748 10.405 -34.206
1.3578660000000013 -0.031 -0.531 1.08 -2.939 11.382 -28.504
1.3649045829999977 -0.011 -0.525 1.051 -9.878 14.55 -24.115
1.3766641249999907 -0.019 -0.519 1.046 -13.718 16.603 -21.206
1.3884539580000137 -0.017 -0.529 1.039 -16.374 23.718 -19.985
1.3955854579999993 -0.061 -0.534 0.969 -24.496 22.435 -16.733
1.4073339999999916 -0.032 -0.567 0.993 -15.969 26.481 -16.26
1.414415708000007 -0.046 -0.608 0.939 -12.275 26.679 -9.221
1.426183583000011 -0.083 -0.606 0.889 -12.824 28.053 -2.191
1.4382150000000138 -0.111 -0.632 0.838 -15.565 27.176 2.885
1.4453086670000062 -0.114 -0.601 0.788 -17.756 25.282 5.626
1.4573815420000074 -0.119 -0.581 0.753 -20.206 22.336 8.0
1.4644497920000106 -0.113 -0.576 0.734 -21.954 19.74 7.565
1.4764401250000105 -0.103 -0.542 0.717 -21.023 16.42 7.29
1.4882285829999944 -0.074 -0.52 0.737 -16.206 18.13 7.496
1.4953153330000077 -0.107 -0.518 0.685 -13.702 15.71 11.466
1.5073436670000149 -0.124 -0.52 0.647 -5.664 15.0 12.847
1.5146549579999942 -0.1 -0.532 0.642 6.389 13.573 13.756
1.5267379169999913 -0.101 -0.52 0.601 10.374 8.374 17.198
1.5388639580000074 -0.093 -0.517 0.583 19.374 6.321 13.359
1.5458690000000104 -0.055 -0.494 0.602 26.832 4.313 13.092
1.557783416999996 -0.066 -0.457 0.583 29.084 2.237 12.183
1.5650798750000092 -0.07 -0.426 0.589 31.061 2.069 9.359
1.5773686670000018 -0.048 -0.41 0.61 30.931 0.496 6.321
1.5843611669999973 -0.042 -0.449 0.633 34.13 1.13 -0.412
1.596679082999998 0.006 -0.399 0.668 28.985 2.649 7.779
1.6025857920000135 0.0 -0.419 0.689 33.855 8.794 5.29
1.616219875000013 -0.058 -0.484 0.679 27.427 6.229 7.031
1.6282246250000014 -0.056 -0.451 0.685 20.901 7.244 10.863
1.635272624999999 -0.002 -0.442 0.756 21.344 10.45 14.038
1.647356000000002 -0.035 -0.425 0.75 17.092 11.198 17.084
1.6544142079999915 -0.056 -0.409 0.758 14.168 12.244 14.634
1.6664608330000021 -0.056 -0.408 0.765 13.252 11.802 9.878
1.678461542000008 -0.038 -0.414 0.784 14.107 10.824 5.145
1.6857370829999923 -0.031 -0.415 0.843 14.733 10.397 3.824
1.6977787920000083 -0.047 -0.368 0.826 10.221 10.122 2.26
1.705143458000009 -0.044 -0.396 0.868 4.611 10.511 3.366
1.7170983750000062 -0.052 -0.409 0.891 -0.55 11.595 7.374
1.7242055419999929 -0.086 -0.408 0.881 -9.0 10.649 8.534
1.7361905420000028 -0.081 -0.432 0.912 -15.351 9.359 7.748
1.7481851670000026 -0.051 -0.418 0.937 -21.542 8.496 8.076
1.755487125000002 -0.042 -0.418 0.94 -23.611 6.779 8.053
1.767547874999991 -0.038 -0.436 0.958 -18.679 8.84 7.489
1.7748924580000107 -0.064 -0.421 0.938 -15.168 7.962 6.099
1.7869076249999978 -0.078 -0.42 0.931 -17.008 5.115 4.695
1.792677375000011 -0.078 -0.434 0.937 -21.237 4.0 5.084
1.8057367920000047 -0.051 -0.454 0.948 -20.511 5.221 5.901
1.8179720830000008 -0.04 -0.457 0.954 -17.939 4.885 7.466
1.825064832999999 -0.069 -0.465 0.941 -15.649 3.237 7.542
1.8372435420000102 -0.062 -0.494 0.959 -12.176 3.45 7.191
1.8444750419999991 -0.071 -0.49 0.942 -11.275 2.763 6.916
1.8566833750000171 -0.066 -0.51 0.937 -8.962 2.412 6.565
1.868672375000017 -0.061 -0.513 0.92 -6.183 0.725 7.359
1.8759807920000071 -0.07 -0.505 0.899 -6.076 -0.977 8.466
1.8879677500000014 -0.065 -0.478 0.895 -7.649 -2.176 8.58
1.895321542000005 -0.062 -0.476 0.896 -6.42 -2.145 8.252
1.9073230420000016 -0.051 -0.459 0.9 -4.397 -3.069 7.496
1.9146367080000175 -0.04 -0.468 0.912 0.092 -1.733 6.252
1.926640582999994 -0.051 -0.463 0.907 2.191 -1.695 6.267
1.9386542919999954 -0.071 -0.433 0.864 -0.229 -2.053 6.649
1.94596712500001 -0.04 -0.466 0.898 7.603 0.656 -0.695
1.9579796250000072 -0.075 -0.471 0.854 3.336 -2.786 0.42
1.9653380000000027 -0.057 -0.403 0.862 3.084 -0.061 -2.084
1.9773727500000007 -0.05 -0.428 0.863 0.847 -1.557 -3.969
1.9846112500000004 -0.04 -0.421 0.858 0.962 -0.13 -3.412
1.9967066250000016 -0.053 -0.424 0.888 0.87 0.595 -2.863
