Time AX AY AZ GX GY GZ
0.01445050000000947 -0.23 -0.163 0.973 -1.985 -1.969 3.855
0.026533208000017794 -0.231 -0.155 0.971 -1.412 -2.427 2.656
0.03871033300001159 -0.234 -0.158 0.96 -0.618 -1.725 1.55
0.045455707999991546 -0.25 -0.15 0.955 -0.145 -2.221 1.275
0.05761254200001531 -0.242 -0.138 0.938 -0.473 -0.015 1.977
0.0647193750000099 -0.253 -0.124 0.932 -1.634 1.359 2.542
0.07736220800001092 -0.25 -0.129 0.923 -2.45 1.038 2.626
0.08467158300001643 -0.243 -0.121 0.928 -3.405 0.985 2.321
0.09642666700000291 -0.238 -0.135 0.943 -3.824 -0.908 1.046
0.10845449999999346 -0.236 -0.148 0.962 -3.176 -3.916 -0.13
0.11577441700001145 -0.223 -0.153 0.971 -2.313 -2.023 -0.107
0.12753637500000536 -0.226 -0.154 0.962 -2.359 -0.038 -0.046
0.13480720800001222 -0.217 -0.152 0.949 -2.084 0.748 0.191
0.14685666700000866 -0.216 -0.146 0.941 -1.969 1.878 -0.107
0.1589198329999988 -0.234 -0.15 0.926 -2.45 -0.336 -0.405
0.16595087499999295 -0.217 -0.154 0.933 -2.092 -0.725 -1.137
0.1779989999999998 -0.219 -0.156 0.941 -1.847 -0.664 -1.924
0.18505116700001167 -0.227 -0.162 0.953 -2.053 -1.511 -2.405
0.1970789169999989 -0.226 -0.155 0.946 -2.046 -0.603 -2.481
0.20911616699999058 -0.228 -0.159 0.94 -1.794 -0.214 -2.931
0.21619008300001497 -0.243 -0.151 0.927 -1.45 -0.931 -2.725
0.22821874999999636 -0.245 -0.136 0.907 -1.504 -0.817 -2.115
0.23528066700001204 -0.241 -0.132 0.887 -1.405 -1.603 -2.145
0.24736495799999147 -0.251 -0.131 0.899 -1.55 -4.672 -2.344
0.25911733300000606 -0.229 -0.112 0.882 -1.634 -5.725 -3.137
0.2663965419999954 -0.215 -0.096 0.888 -2.656 -6.588 -3.794
0.2781827919999955 -0.191 -0.078 0.859 -4.313 -5.145 -4.168
0.2855965420000075 -0.188 -0.071 0.87 -6.313 -5.603 -5.58
0.29731391699999676 -0.16 -0.076 0.871 -7.244 -3.954 -8.595
0.3035003749999987 -0.205 -0.087 0.923 -8.908 -8.519 -11.878
0.31619629200000077 -0.234 -0.099 0.935 -9.71 -11.748 -12.908
0.32800270800001385 -0.221 -0.11 0.986 -11.252 -9.145 -13.107
0.33512970800001085 -0.237 -0.139 1.076 -12.618 -10.916 -13.901
0.3468790830000046 -0.243 -0.161 1.125 -11.527 -8.748 -14.885
0.35867666699999745 -0.271 -0.166 1.175 -10.282 -0.901 -15.092
0.36560362500000565 -0.347 -0.177 1.231 -9.931 0.076 -15.008
0.3777902079999933 -0.426 -0.188 1.251 -5.779 0.084 -16.992
0.3848528750000071 -0.515 -0.205 1.278 -3.985 -0.015 -15.336
0.39669562500000666 -0.606 -0.218 1.294 -0.634 -0.015 -12.71
0.4087130830000092 -0.677 -0.258 1.309 2.885 -4.16 -7.802
0.41601137500001073 -0.715 -0.282 1.299 5.954 -6.244 -0.74
0.4280064579999987 -0.718 -0.305 1.285 7.534 -5.679 7.58
0.4353089999999895 -0.694 -0.33 1.27 11.557 1.992 16.588
0.4471254999999985 -0.66 -0.325 1.229 17.924 11.038 24.252
0.4591141250000135 -0.676 -0.292 1.205 19.16 6.489 27.221
0.4664377500000114 -0.67 -0.283 1.086 13.931 -2.733 29.802
0.4781835420000107 -0.686 -0.303 1.046 12.847 -6.023 34.588
0.48558004200000937 -0.692 -0.324 1.007 19.26 -7.168 41.733
0.49736066700000947 -0.641 -0.324 0.982 28.656 -12.58 49.206
0.5090942920000145 -0.587 -0.281 0.936 33.656 -20.298 54.832
0.5162157080000043 -0.52 -0.259 0.907 35.55 -26.137 58.87
0.5282722080000042 -0.473 -0.238 0.917 35.42 -28.252 61.42
0.5353095830000143 -0.435 -0.222 0.904 36.237 -28.092 64.107
0.5470957080000005 -0.4 -0.21 0.849 36.275 -25.023 66.557
0.5588902080000082 -0.345 -0.192 0.817 37.26 -20.809 68.626
0.5660017920000087 -0.304 -0.185 0.776 40.053 -19.0 69.366
0.5780063329999905 -0.321 -0.176 0.729 39.374 -22.847 70.557
0.5851361670000017 -0.294 -0.174 0.693 36.595 -27.435 72.618
0.5968813329999989 -0.238 -0.178 0.693 33.885 -27.198 74.198
0.6086382080000021 -0.168 -0.175 0.687 31.565 -25.534 75.802
0.6157639580000023 -0.11 -0.181 0.676 28.412 -22.748 75.809
0.6279181250000079 -0.06 -0.184 0.669 26.221 -19.664 74.351
0.635054249999996 -0.058 -0.188 0.649 23.763 -21.038 72.855
0.6465671670000006 -0.034 -0.172 0.617 20.053 -20.695 72.496
0.6587042920000101 0.014 -0.156 0.593 15.214 -16.992 72.015
0.6654546249999953 0.058 -0.138 0.577 9.931 -12.931 71.069
0.6778150000000096 0.068 -0.132 0.579 5.626 -12.031 68.84
0.6847898329999964 0.179 -0.09 0.536 0.282 -1.962 66.725
0.6970130420000089 0.061 -0.111 0.616 -0.985 -7.863 64.405
0.7092001670000059 0.077 -0.109 0.608 -5.679 -13.015 61.275
0.7165601250000009 0.135 -0.104 0.582 -6.527 -4.588 59.061
0.7282585419999918 0.121 -0.072 0.594 -11.084 -1.55 57.382
0.7356789170000013 0.143 -0.063 0.59 -15.344 2.359 55.641
0.7476078330000178 0.155 -0.054 0.615 -18.687 5.847 53.153
0.7549252080000031 0.194 -0.042 0.643 -23.58 6.229 50.076
0.7669880830000011 0.222 -0.033 0.679 -27.779 7.168 45.0
0.7790395419999925 0.234 -0.028 0.701 -31.405 8.534 39.076
0.7860925420000058 0.218 -0.023 0.721 -35.588 10.237 33.794
0.7981448749999913 0.187 -0.024 0.753 -39.481 11.168 28.595
0.805131375000002 0.17 -0.036 0.808 -43.397 24.122 26.389
0.8172592500000064 0.153 -0.041 0.836 -41.817 45.275 27.473
0.8289452500000039 0.137 -0.041 0.94 -47.748 39.473 23.832
0.836304250000012 0.218 -0.047 0.943 -47.374 33.305 17.954
0.8481105829999933 0.245 -0.049 0.954 -42.679 42.42 13.26
0.8553932920000022 0.19 -0.048 1.011 -43.55 40.885 6.779
0.8674786670000003 0.167 -0.047 1.072 -43.992 35.74 0.687
0.8733007080000164 0.134 -0.064 1.101 -40.176 41.328 -3.076
0.8864219579999997 0.071 -0.077 1.138 -33.992 48.824 -5.595
0.8985539999999901 0.037 -0.1 1.172 -29.992 50.275 -9.519
0.9056146670000089 0.029 -0.12 1.206 -26.466 49.473 -13.458
0.9173622499999965 0.054 -0.142 1.248 -20.168 50.153 -17.0
0.9290998330000093 0.081 -0.138 1.259 -13.153 52.412 -20.695
0.9364578329999915 0.077 -0.109 1.247 -6.649 55.71 -25.168
0.9482035420000159 0.088 -0.066 1.222 -6.672 67.947 -31.183
0.9556178750000015 0.037 -0.053 1.201 -7.466 67.969 -38.443
0.967355208000015 -0.023 -0.055 1.145 -4.931 63.275 -45.061
0.9791316669999901 -0.092 -0.057 1.132 -4.13 67.511 -48.153
0.9862344999999948 -0.119 -0.071 1.154 -6.702 69.611 -50.847
0.9983147920000022 -0.131 -0.108 1.191 -6.229 67.618 -54.13
1.0050711670000112 -0.155 -0.141 1.215 -3.748 66.748 -56.809
1.016941916999997 -0.165 -0.154 1.23 -0.542 60.908 -60.405
1.02914233300001 -0.161 -0.132 1.229 2.573 60.038 -63.214
1.0357832500000086 -0.206 -0.085 1.199 4.473 60.824 -67.137
1.0481431249999957 -0.288 -0.072 1.16 8.015 59.221 -69.511
1.054840917000007 -0.372 -0.07 1.123 4.779 60.183 -70.603
1.06709033300001 -0.437 -0.077 1.126 6.679 57.45 -70.015
1.0790916249999896 -0.474 -0.094 1.123 8.718 56.779 -68.115
1.085845667000001 -0.535 -0.096 1.129 10.031 49.237 -66.924
1.0981187920000082 -0.588 -0.112 1.168 13.076 40.992 -64.771
1.1048528329999954 -0.623 -0.125 1.158 18.244 36.779 -60.893
1.116884208000016 -0.639 -0.131 1.166 23.878 28.573 -57.58
1.1288603330000058 -0.627 -0.121 1.134 29.321 20.198 -55.107
1.1356865829999947 -0.656 -0.108 1.104 34.321 14.542 -52.863
1.1479838749999942 -0.669 -0.108 1.084 40.16 7.275 -50.427
1.1548050000000103 -0.704 -0.114 1.048 45.656 -0.733 -47.626
1.1667515000000037 -0.727 -0.116 1.024 51.71 -7.893 -43.481
1.1786383330000092 -0.707 -0.127 1.008 56.908 -13.733 -39.328
1.1857397079999998 -0.683 -0.134 0.972 60.893 -22.496 -36.817
1.1976347920000023 -0.702 -0.131 0.971 63.718 -32.092 -34.084
1.204685957999999 -0.718 -0.125 0.94 64.771 -42.275 -31.0
1.2164023329999907 -0.696 -0.103 0.913 63.824 -51.038 -26.29
1.2282041249999907 -0.647 -0.097 0.884 60.336 -59.061 -22.901
1.235090041999996 -0.618 -0.09 0.889 56.519 -67.344 -22.046
1.2468530829999906 -0.59 -0.105 0.906 54.13 -73.885 -21.145
1.2587006250000172 -0.564 -0.122 0.922 51.16 -79.328 -19.908
1.2657709169999976 -0.541 -0.126 0.912 46.595 -80.924 -19.496
1.277526999999992 -0.519 -0.128 0.892 41.519 -80.0 -20.71
1.284721458000007 -0.467 -0.1 0.855 36.557 -76.412 -20.672
1.2964814999999987 -0.434 -0.082 0.833 28.046 -73.664 -17.672
1.3082163750000007 -0.393 -0.086 0.788 24.954 -69.863 -10.664
1.315366124999997 -0.359 -0.081 0.798 23.435 -61.366 -8.137
1.3272225420000154 -0.315 -0.069 0.792 20.786 -57.649 -8.176
1.3389050419999933 -0.272 -0.081 0.776 21.939 -49.786 -9.153
1.346098167000008 -0.265 -0.081 0.771 24.008 -44.802 -9.656
1.3580249580000157 -0.29 -0.085 0.758 26.573 -43.191 -9.427
1.364878417 -0.307 -0.095 0.769 26.809 -45.061 -7.992
1.376869499999998 -0.303 -0.108 0.777 25.855 -46.282 -5.038
1.388663500000007 -0.262 -0.116 0.77 21.626 -39.779 -1.878
1.3959773329999905 -0.216 -0.122 0.762 16.779 -27.771 0.702
1.4078328749999969 -0.177 -0.117 0.744 15.183 -16.115 1.366
1.4150644999999997 -0.164 -0.102 0.717 9.977 -9.214 0.267
1.427332750000005 -0.157 -0.079 0.661 4.198 -6.008 0.458
1.4347562080000102 -0.157 -0.06 0.63 0.725 -1.824 0.542
1.446665208000013 -0.145 -0.028 0.603 -3.87 3.29 0.435
1.4586972079999896 -0.186 -0.019 0.62 -7.969 6.168 -0.099
1.4659765419999928 -0.194 -0.022 0.639 -8.969 7.0 1.076
1.4780152920000091 -0.18 -0.032 0.664 -8.595 11.542 2.802
1.4852820000000122 -0.187 -0.041 0.707 -7.817 16.405 3.496
1.4974178330000143 -0.178 -0.04 0.718 -6.817 20.191 3.924
1.5033563329999993 -0.153 -0.016 0.721 -6.473 26.695 3.626
1.5166559170000085 -0.146 0.009 0.74 -9.229 29.489 1.458
1.5284436670000048 -0.172 0.024 0.765 -13.053 28.221 -0.618
1.5357469170000115 -0.193 0.031 0.779 -16.069 28.908 -1.634
1.547484125000011 -0.241 0.021 0.816 -19.023 33.145 -1.023
1.5548256670000171 -0.279 0.001 0.864 -20.359 35.695 0.511
1.5668732500000147 -0.309 -0.031 0.905 -20.45 37.756 2.023
1.5786557920000064 -0.318 -0.053 0.929 -20.443 39.221 3.229
1.585954208000004 -0.315 -0.071 0.974 -19.298 38.672 3.496
1.5977492499999926 -0.317 -0.076 0.992 -17.511 37.107 4.053
1.6051401249999913 -0.291 -0.06 0.991 -17.435 36.786 4.718
1.6168607079999902 -0.274 -0.059 1.019 -16.29 38.374 4.962
1.6288877499999899 -0.313 -0.056 1.031 -14.031 36.618 4.313
1.635966625000009 -0.339 -0.062 1.026 -12.649 34.511 4.473
1.6479622920000168 -0.377 -0.08 1.087 -8.87 36.244 5.84
1.6553204170000129 -0.439 -0.087 1.125 -3.313 14.496 4.947
1.6673145830000067 -0.369 -0.081 1.021 5.603 15.489 6.496
1.674660208000006 -0.376 -0.067 1.083 -1.947 14.275 7.885
1.6866337499999986 -0.333 -0.085 1.087 -1.87 10.198 8.672
1.6986572499999966 -0.291 -0.092 1.06 5.389 15.359 9.069
1.7059890419999988 -0.281 -0.067 1.057 8.397 15.473 8.183
1.718196292000016 -0.277 -0.051 1.029 8.969 12.137 5.947
1.7255304170000159 -0.279 -0.039 1.019 8.122 9.046 3.534
1.737766832999995 -0.283 -0.036 1.003 6.336 7.527 1.878
1.7451061250000066 -0.3 -0.04 0.983 4.244 5.756 0.397
1.757085458000006 -0.319 -0.036 0.971 1.382 1.55 -0.534
1.7690770419999922 -0.342 -0.039 0.949 -2.55 -3.153 -0.313
1.7764482500000156 -0.332 -0.043 0.94 -5.443 -4.687 0.229
1.788431083000006 -0.326 -0.042 0.941 -8.298 -3.702 0.832
1.7955467499999997 -0.322 -0.047 0.918 -9.496 -4.313 0.817
1.8075640000000135 -0.317 -0.044 0.927 -10.45 -7.954 0.595
1.8146671249999997 -0.296 -0.055 0.926 -10.374 -11.634 -0.366
1.8264362079999898 -0.296 -0.047 0.932 -9.985 -13.458 -2.489
1.8382261670000162 -0.305 -0.061 0.93 -8.916 -17.504 -3.885
1.845269916999996 -0.323 -0.049 0.907 -8.893 -19.878 -4.733
1.8570770830000072 -0.33 -0.047 0.893 -10.832 -22.092 -3.756
1.8688805419999994 -0.321 -0.045 0.889 -11.336 -22.42 -2.076
1.8759560420000128 -0.3 -0.044 0.887 -11.412 -22.405 -1.573
1.887742457999991 -0.321 -0.041 0.896 -11.313 -22.634 -0.267
1.8948995419999903 -0.304 -0.053 0.924 -10.947 -21.985 0.389
1.9067060830000173 -0.26 -0.061 0.935 -11.115 -19.298 0.176
1.918438000000009 -0.24 -0.074 0.95 -10.885 -16.916 -1.725
1.9255336669999963 -0.236 -0.071 0.956 -10.573 -14.832 -3.649
1.9373228750000067 -0.245 -0.078 0.955 -10.298 -11.214 -4.771
1.949103000000008 -0.257 -0.072 0.935 -11.099 -7.466 -4.504
1.9562085000000025 -0.261 -0.086 0.93 -10.786 -3.191 -3.458
1.9682277080000006 -0.257 -0.082 0.952 -10.794 -0.481 -2.809
1.975235583 -0.257 -0.084 0.954 -9.901 1.756 -2.519
1.9872956250000016 -0.268 -0.092 0.957 -9.198 2.649 -2.275
1.9946116250000046 -0.269 -0.096 0.965 -7.412 3.496 -2.099
2.006654792000006 -0.267 -0.098 0.966 -5.656 5.282 -2.069
