Time AX AY AZ GX GY GZ
0.014014666999997871 -0.047 -0.244 0.962 11.908 -5.374 9.031
0.026357249999989563 -0.037 -0.235 0.965 9.702 -5.336 9.992
0.03306724999998778 -0.034 -0.231 0.947 13.656 -6.336 12.534
0.04523274999999671 -0.054 -0.252 0.984 14.038 -9.458 11.069
0.05242233399999918 -0.026 -0.246 0.974 13.458 -7.267 7.321
0.06463775000000282 -0.004 -0.224 0.991 10.733 -6.565 7.771
0.07677483399999119 0.001 -0.21 0.982 9.145 -6.008 7.809
0.08445075000000202 0.007 -0.19 0.981 6.634 -4.771 7.908
0.09638616699999147 0.005 -0.194 0.976 8.565 -4.824 4.542
0.10371583399998485 0.005 -0.203 0.975 12.038 -4.42 1.519
0.11566579199998728 0.004 -0.188 0.957 12.985 -3.664 -0.267
0.12296187499998723 0.0 -0.184 0.966 13.947 -4.275 -1.397
0.13518233400000668 0.006 -0.189 0.956 17.038 -4.313 -1.55
0.1470710840000038 0.01 -0.177 0.96 21.397 -4.351 -1.168
0.15436474999998495 0.022 -0.169 0.954 24.412 -3.282 -1.389
0.16636354199999914 0.013 -0.172 0.979 24.687 -4.733 1.939
0.17368425000000798 0.016 -0.146 0.971 19.809 -3.176 -2.466
0.18576916699998947 0.031 -0.139 0.943 13.412 0.382 -4.977
0.1930014589999871 0.022 -0.148 0.949 8.313 -0.183 -4.756
0.2052961670000002 0.018 -0.134 0.952 5.389 1.885 -5.069
0.21725637500000516 0.006 -0.121 0.957 6.947 2.786 -6.046
0.22456670899998699 0.023 -0.076 0.933 -5.405 1.641 -9.809
0.2366847499999949 0.006 -0.132 0.948 -0.84 2.298 -14.534
0.243910709000005 0.022 -0.115 0.953 -7.527 3.13 -10.725
0.2558612089999883 0.012 -0.111 0.96 -11.931 6.16 -10.733
0.26292424999999753 0.017 -0.1 0.948 -14.863 6.962 -12.992
0.27497575000001007 0.018 -0.107 0.94 -17.321 7.198 -15.412
0.28673841700000935 0.015 -0.105 0.961 -16.779 7.954 -17.55
0.2940149169999984 0.006 -0.107 0.972 -15.588 8.534 -20.015
0.3058241249999867 0.005 -0.131 0.999 -14.267 9.313 -24.382
0.3129233749999969 0.006 -0.134 1.037 -12.664 11.779 -28.962
0.3247198340000068 -0.01 -0.151 1.057 -13.443 13.893 -32.481
0.3365466250000111 -0.03 -0.168 1.066 -16.305 15.099 -35.634
0.34356387500000096 -0.067 -0.212 1.087 -20.733 14.435 -38.176
0.3554164999999898 -0.082 -0.238 1.125 -23.924 14.321 -39.473
0.36717566699999793 -0.106 -0.297 1.16 -17.023 16.664 -38.481
0.37429041699999743 -0.131 -0.314 1.175 -17.443 16.282 -36.626
0.3860803750000059 -0.167 -0.329 1.184 -16.603 17.336 -33.076
0.392874833999997 -0.187 -0.323 1.199 -16.313 16.45 -32.046
0.40474695899999347 -0.211 -0.288 1.184 -19.0 18.733 -28.588
0.41650508399999353 -0.24 -0.318 1.202 -16.595 17.84 -29.015
0.42362649999998325 -0.268 -0.317 1.209 -15.687 18.893 -26.305
0.43536616699998376 -0.286 -0.316 1.175 -19.076 17.519 -25.817
0.4473901249999983 -0.323 -0.402 1.182 -9.817 13.611 -26.26
0.45456804200000533 -0.312 -0.401 1.146 1.931 11.313 -17.252
0.4665351669999893 -0.318 -0.319 1.136 6.496 8.71 -11.542
0.47356416700000636 -0.298 -0.263 1.116 10.115 6.885 -5.611
0.4859151670000017 -0.334 -0.274 1.09 6.992 3.962 -2.405
0.49317874999999844 -0.322 -0.279 1.071 7.466 0.84 0.198
0.5052045839999835 -0.328 -0.325 1.038 10.214 -0.328 5.718
0.5172401250000007 -0.334 -0.359 1.005 14.939 -4.496 9.511
0.5244040839999968 -0.296 -0.332 1.029 18.794 -7.855 15.725
0.5364590840000005 -0.262 -0.332 1.04 31.84 -5.954 19.924
0.5434715419999918 -0.203 -0.317 1.04 38.779 -1.542 30.351
0.5555308749999881 -0.217 -0.338 1.024 39.977 2.053 36.237
0.5628821669999979 -0.228 -0.29 0.991 39.313 4.733 37.336
0.5749265000000037 -0.272 -0.243 0.948 33.55 5.412 42.214
0.5867941669999936 -0.295 -0.188 0.914 26.481 2.122 42.053
0.5939112920000014 -0.3 -0.146 0.885 21.244 -4.023 37.748
0.6059308749999843 -0.269 -0.136 0.897 23.58 -10.908 29.725
0.6129951249999976 -0.2 -0.161 0.919 32.908 -12.893 25.405
0.6247438750000072 -0.136 -0.202 0.958 38.473 -11.748 25.031
0.6368534590000081 -0.114 -0.19 0.946 36.504 -6.466 28.771
0.6438427919999867 -0.114 -0.147 0.932 29.649 -1.389 30.679
0.6559307500000102 -0.126 -0.147 0.886 23.221 2.351 30.603
0.6632096250000075 -0.143 -0.197 0.844 18.099 1.13 30.649
0.6749314999999854 -0.163 -0.305 0.802 21.595 -3.641 30.061
0.6869975840000109 -0.176 -0.324 0.747 24.046 -9.84 33.947
0.6940768339999863 -0.132 -0.295 0.75 26.817 -16.397 39.679
0.7058678749999956 -0.083 -0.234 0.765 22.076 -11.87 47.573
0.7130320839999911 -0.042 -0.228 0.761 12.802 -16.122 53.702
0.7250391670000056 -0.009 -0.207 0.741 4.366 -17.389 57.008
0.7370572920000029 -0.029 -0.181 0.695 5.206 -12.069 57.382
0.7441272920000017 -0.029 -0.171 0.635 8.427 -15.588 53.496
0.7561505840000109 -0.004 -0.164 0.64 7.603 -23.267 52.046
0.7631529169999851 0.062 -0.151 0.63 6.756 -28.122 50.931
0.7751913339999987 0.108 -0.185 0.653 6.061 -29.893 49.115
0.7872491249999882 0.163 -0.166 0.661 -1.985 -30.511 51.489
0.7942973749999851 0.187 -0.121 0.659 -8.382 -28.511 54.038
0.8063496670000063 0.214 -0.068 0.656 -21.206 -25.405 57.779
0.8133975840000005 0.231 -0.073 0.678 -29.992 -21.939 55.763
0.8253948340000079 0.227 -0.068 0.653 -37.496 -21.641 51.481
0.8370047089999844 0.209 -0.095 0.683 -30.313 -21.885 41.176
0.844102208999999 0.235 -0.08 0.674 -34.748 -25.313 35.275
0.8561266669999839 0.262 -0.099 0.713 -28.389 -26.092 27.87
0.8632514589999971 0.296 -0.108 0.745 -29.359 -27.076 24.74
0.8749719999999854 0.326 -0.099 0.769 -32.695 -22.863 24.282
0.8867926670000088 0.328 -0.117 0.815 -40.275 -18.267 27.038
0.8939458339999931 0.319 -0.119 0.835 -52.84 -12.58 30.504
0.9060156250000091 0.277 -0.071 0.792 -62.282 -11.29 29.611
0.9130643339999835 0.238 -0.057 0.769 -64.084 -10.107 21.45
0.9247345420000102 0.289 -0.109 0.816 -59.573 -13.557 13.282
0.9368408750000015 0.291 -0.124 0.823 -57.71 -16.313 4.0
0.943972959000007 0.338 -0.132 0.845 -55.992 -14.382 -3.107
0.9557766249999986 0.36 -0.159 0.882 -59.107 -12.695 -7.145
0.9628328750000037 0.392 -0.162 0.948 -68.771 -8.733 -9.458
0.9748942500000055 0.409 -0.186 1.004 -65.061 2.511 -10.366
0.986917874999989 0.401 -0.229 1.036 -69.008 10.473 -7.786
0.9940818339999851 0.343 -0.212 0.995 -69.527 15.405 -6.695
1.0055773750000014 0.264 -0.225 0.943 -68.321 20.198 -11.145
1.0124758339999858 0.223 -0.273 0.9 -63.344 23.031 -17.786
1.0245677919999991 0.207 -0.328 0.913 -51.26 20.863 -25.137
1.0365045419999888 0.21 -0.354 0.95 -36.0 17.328 -28.214
1.0432489169999997 0.217 -0.351 0.985 -21.115 15.794 -27.519
1.0552848339999912 0.222 -0.325 1.022 -13.397 15.008 -27.015
1.062301375000004 0.199 -0.31 1.06 -0.305 17.221 -27.481
1.0745457499999986 0.195 -0.268 1.066 3.534 18.687 -31.198
1.0868029590000106 0.165 -0.235 1.087 5.099 21.206 -39.687
1.0935848339999836 0.146 -0.237 1.086 2.618 21.893 -43.427
1.1057866250000075 0.098 -0.283 1.09 7.237 19.664 -48.45
1.1128189169999985 0.074 -0.276 1.098 14.351 17.969 -53.519
1.1247707919999925 0.061 -0.273 1.114 12.794 14.252 -54.916
1.1373119589999874 0.071 -0.209 1.151 5.908 9.458 -53.885
1.1444986250000113 0.074 -0.197 1.151 4.145 4.588 -56.84
1.1566662500000007 0.047 -0.238 1.232 1.237 4.809 -61.458
1.1637617089999992 0.02 -0.265 1.262 -2.374 3.206 -62.412
1.1759405420000064 0.006 -0.326 1.302 3.046 1.71 -65.695
1.183100875000008 -0.014 -0.328 1.288 4.244 -0.26 -62.359
1.1951071670000033 -0.029 -0.352 1.26 1.137 -0.305 -58.466
1.20688045899999 -0.042 -0.357 1.242 -7.573 -0.061 -56.473
1.2141864170000076 -0.064 -0.334 1.22 -22.229 -0.374 -55.031
1.2258244999999874 -0.025 -0.349 1.261 -28.634 2.573 -58.115
1.2329924999999946 -0.002 -0.325 1.281 -34.908 5.473 -51.87
1.2449100839999971 0.013 -0.352 1.312 -28.901 11.519 -50.756
1.2567241669999873 -0.053 -0.386 1.27 -24.962 14.298 -46.74
1.263497333999993 -0.123 -0.373 1.226 -21.382 15.229 -44.901
1.275316791999984 -0.153 -0.381 1.172 -20.947 14.557 -45.466
1.2871065839999858 -0.149 -0.397 1.164 -15.473 12.366 -45.038
1.2941900840000073 -0.16 -0.425 1.142 -19.168 14.29 -39.58
1.3060280839999905 -0.17 -0.453 1.108 -18.542 12.947 -34.405
1.3130588749999959 -0.164 -0.463 1.094 -16.985 12.634 -29.321
1.3249172920000092 -0.154 -0.48 1.092 -19.115 12.244 -22.641
1.3367003339999997 -0.129 -0.465 1.096 -21.458 14.168 -16.58
1.343805083999996 -0.12 -0.456 1.074 -21.237 18.183 -8.504
1.3554666670000017 -0.135 -0.44 1.055 -19.26 20.985 -2.229
1.361359458999999 -0.151 -0.402 1.014 -28.611 24.344 3.985
1.3745583749999923 -0.168 -0.378 0.98 -34.069 24.695 9.168
1.3865278749999845 -0.21 -0.381 0.895 -29.305 22.695 9.137
1.3935749999999985 -0.25 -0.409 0.86 -17.901 17.84 7.29
1.4056635000000028 -0.236 -0.441 0.836 -6.115 11.511 7.634
1.4128889170000036 -0.202 -0.48 0.839 5.336 4.351 8.71
1.4247351249999838 -0.135 -0.479 0.873 18.191 0.687 17.824
1.4370865839999851 -0.104 -0.514 0.872 29.573 1.519 25.924
1.4439394169999957 -0.072 -0.534 0.882 33.702 5.267 40.588
1.456165709000004 -0.085 -0.553 0.842 34.382 10.275 54.305
1.463085124999992 -0.079 -0.525 0.824 35.908 14.954 65.511
1.4752009169999951 -0.104 -0.456 0.759 38.969 19.458 72.641
1.4871570420000069 -0.152 -0.375 0.675 38.176 18.939 74.573
1.494525708999987 -0.2 -0.312 0.613 36.382 12.359 66.954
1.5065123749999998 -0.184 -0.224 0.593 35.053 2.412 55.412
1.513611209000004 -0.166 -0.178 0.602 40.084 -5.046 42.153
1.5253751250000107 -0.133 -0.157 0.628 43.817 -11.015 31.626
1.531529708999983 -0.108 -0.18 0.626 51.504 -15.954 21.534
1.5444785839999895 -0.083 -0.182 0.68 53.748 -21.038 16.221
1.5563143340000067 -0.084 -0.148 0.687 54.397 -22.748 10.985
1.5633363750000058 -0.079 -0.146 0.706 56.733 -24.542 3.389
1.57546099999999 -0.049 -0.167 0.731 57.397 -24.275 -0.931
1.5813542919999861 0.004 -0.173 0.776 56.206 -22.336 2.42
1.5944572089999838 0.007 -0.166 0.811 52.748 -20.656 7.87
1.6064798339999982 0.0 -0.159 0.835 46.382 -15.992 3.779
1.6137922919999994 0.005 -0.146 0.845 36.863 -11.626 -0.107
1.6258112090000054 0.008 -0.168 0.87 29.817 -8.901 -3.252
1.6329006670000012 -0.014 -0.181 0.914 23.832 -8.389 -5.748
1.6449079169999834 0.013 -0.232 0.951 23.168 -2.901 -11.702
1.6569331249999948 0.009 -0.269 0.942 15.191 2.107 -7.71
1.6643152499999871 -0.002 -0.276 0.961 7.359 8.061 -4.42
1.6762628339999992 0.007 -0.268 0.96 -0.611 12.389 0.176
1.6836002499999836 -0.014 -0.231 0.955 -15.588 13.603 5.885
1.695407749999987 -0.038 -0.181 0.938 -27.168 14.458 6.611
1.7027070839999965 -0.054 -0.182 0.935 -33.076 13.649 3.695
1.714491124999995 -0.06 -0.194 0.935 -30.626 12.481 1.107
1.7265388339999959 -0.056 -0.209 0.941 -26.092 10.29 -1.29
1.7335741249999899 -0.052 -0.22 0.941 -26.038 7.931 -1.748
1.745660375 -0.037 -0.239 0.955 -28.046 7.115 -2.763
1.7527226249999899 -0.013 -0.261 0.982 -32.206 6.656 -2.519
1.7647035420000066 -0.019 -0.198 0.969 -39.511 5.962 0.687
1.776748375000011 -0.014 -0.24 1.002 -38.298 6.397 -5.695
1.7838629169999933 0.006 -0.257 1.033 -37.672 6.969 -4.939
1.7958110419999969 0.014 -0.281 1.039 -31.954 6.733 -5.321
1.8031378339999833 -0.009 -0.311 1.022 -24.145 9.038 -3.756
1.8149203339999929 -0.027 -0.302 1.007 -23.389 10.534 1.656
1.8269309590000091 -0.061 -0.283 0.972 -26.16 7.916 4.313
1.8343044169999985 -0.085 -0.278 0.949 -24.702 3.557 3.58
1.8462753750000047 -0.089 -0.285 0.938 -17.183 -0.916 0.878
1.8534358750000024 -0.061 -0.296 0.97 -5.611 -5.191 -1.29
1.865387792000007 -0.035 -0.313 0.984 0.275 -7.55 -1.122
1.8727068750000058 -0.027 -0.314 0.979 1.527 -7.305 1.435
1.8847101670000086 -0.029 -0.317 0.977 -0.542 -6.74 2.679
1.896712334 -0.019 -0.307 0.978 -1.473 -7.237 3.374
1.9040149589999942 -0.01 -0.292 0.97 2.794 -6.412 2.008
1.9160556249999843 -0.014 -0.289 0.961 7.58 -5.321 -0.565
1.923116666999988 -0.023 -0.302 0.951 12.214 -4.832 -2.076
1.935136749999998 -0.035 -0.304 0.942 13.366 -4.962 -2.695
1.9471650840000052 -0.037 -0.302 0.928 12.649 -5.824 -2.611
1.9542619590000072 -0.045 -0.308 0.922 14.733 -5.679 -2.122
1.9662745420000078 -0.036 -0.292 0.936 16.733 -5.84 -1.115
1.9733931250000012 -0.035 -0.291 0.945 20.504 -5.313 0.321
1.9854297919999908 -0.042 -0.269 0.961 23.153 -4.504 1.519
1.9927585000000079 -0.035 -0.261 0.962 24.053 -3.656 2.046
2.0046999589999928 -0.022 -0.25 0.997 25.191 -2.198 1.45
