Time AX AY AZ GX GY GZ
0.014408792000011772 0.119 -0.522 0.857 0.244 -5.137 1.252
0.026922667000008005 0.117 -0.518 0.866 1.168 -4.275 0.985
0.03387566700000377 0.117 -0.525 0.875 3.74 -3.481 0.87
0.04630887500000824 0.115 -0.531 0.864 5.802 -3.176 1.0
0.05883158299999991 0.112 -0.531 0.86 4.504 -2.885 1.084
0.06608825000000706 0.11 -0.516 0.845 3.122 -2.519 1.145
0.07829875000000186 0.103 -0.508 0.831 2.847 -3.206 0.282
0.08561145800000247 0.107 -0.502 0.85 2.878 -3.702 0.168
0.09783995800000866 0.104 -0.509 0.838 2.13 -3.809 0.366
0.10518500000000586 0.102 -0.506 0.835 0.626 -3.725 1.344
0.11717575000000124 0.102 -0.503 0.824 -1.023 -4.053 1.573
0.12444154199999957 0.112 -0.511 0.818 -0.901 -4.16 1.626
0.1367747920000113 0.117 -0.507 0.822 0.611 -4.824 0.878
0.14871941700000946 0.141 -0.497 0.838 0.611 -5.244 -0.015
0.1559730419999994 0.146 -0.505 0.851 0.374 -4.13 -0.458
0.16802041700000814 0.157 -0.495 0.86 -1.053 -2.573 -0.466
0.17535687500000563 0.16 -0.483 0.858 -1.053 -1.435 -0.962
0.18734933300000023 0.164 -0.48 0.865 1.191 -0.45 -1.832
0.19486670800000638 0.165 -0.495 0.877 1.45 1.42 -2.359
0.20691687500000455 0.148 -0.506 0.853 1.405 3.015 -2.557
0.21444654200000457 0.146 -0.511 0.858 2.443 3.985 -2.908
0.22644975000000045 0.136 -0.507 0.843 1.695 4.763 -2.947
0.2386705830000011 0.135 -0.509 0.836 0.176 5.183 -3.298
0.24600854199999844 0.124 -0.508 0.836 -1.122 4.969 -3.725
0.25803175000000067 0.118 -0.502 0.838 -1.305 3.977 -5.084
0.2653627500000084 0.113 -0.503 0.841 -2.145 4.076 -4.58
0.2776043329999993 0.112 -0.507 0.838 -1.771 3.55 -5.069
0.2849415000000022 0.11 -0.502 0.84 -1.382 3.237 -4.893
0.2968716250000085 0.11 -0.507 0.837 -0.176 2.58 -5.534
0.30424175000000275 0.111 -0.513 0.841 0.473 2.359 -5.466
0.31647620800001164 0.119 -0.513 0.838 0.229 2.779 -5.809
0.3284612500000037 0.114 -0.513 0.835 -0.718 2.809 -5.435
0.3358015000000023 0.114 -0.507 0.837 -1.275 3.0 -5.282
0.34801654200001053 0.123 -0.523 0.832 -1.099 2.863 -5.069
0.35535837500000866 0.127 -0.519 0.826 -2.664 2.763 -5.863
0.3673928750000073 0.136 -0.527 0.838 -2.618 2.763 -6.244
0.3747046250000068 0.147 -0.514 0.848 -2.527 2.718 -6.939
0.3868090420000101 0.142 -0.515 0.843 -3.099 3.443 -7.664
0.39276554200000646 0.137 -0.535 0.843 -0.252 3.328 -7.29
0.4062707080000081 0.129 -0.538 0.833 0.863 3.511 -6.908
0.41825100000001214 0.125 -0.538 0.836 -1.443 4.137 -6.802
0.4255336670000105 0.131 -0.524 0.83 -1.344 4.076 -6.176
0.4378349580000105 0.133 -0.504 0.833 -0.557 2.863 -5.466
0.4451454170000062 0.133 -0.483 0.824 -3.893 4.328 -6.473
0.457178208000002 0.135 -0.428 0.844 -8.321 5.962 -5.534
0.46447687500000256 0.125 -0.446 0.823 -13.45 5.901 -7.053
0.47624050000000295 0.122 -0.411 0.867 -14.176 7.321 -11.771
0.4882876249999981 0.104 -0.427 0.863 -16.153 9.183 -12.779
0.49541266700001074 0.086 -0.477 0.885 -15.046 10.023 -13.366
0.5071614579999988 0.074 -0.507 0.888 -17.046 10.878 -13.672
0.5142279169999995 0.069 -0.538 0.903 -16.977 10.916 -14.061
0.526314124999999 0.065 -0.569 0.936 -13.588 11.313 -14.397
0.5380582920000023 0.077 -0.601 0.966 -5.763 11.13 -17.214
0.5453478750000045 0.082 -0.623 1.007 -3.603 13.046 -19.542
0.5571397080000082 0.081 -0.657 1.068 -1.58 16.031 -20.336
0.5644134580000042 0.078 -0.716 1.107 1.229 19.725 -19.473
0.5764895830000114 0.067 -0.743 1.135 4.29 22.656 -18.076
0.5885415830000085 0.047 -0.761 1.099 3.641 22.557 -19.16
0.595534083000004 0.009 -0.783 1.069 -3.282 20.42 -20.962
0.6076272500000073 0.041 -0.851 1.052 -0.328 15.947 -27.046
0.6149232920000003 0.1 -0.837 1.063 5.008 13.702 -27.443
0.626706917000007 0.021 -0.888 1.116 19.0 13.924 -22.962
0.638682958000004 0.009 -0.929 1.04 29.511 10.008 -16.55
0.6457656250000099 -0.028 -0.898 1.004 34.115 2.664 -11.336
0.6578351250000054 -0.039 -0.849 0.955 38.534 -6.374 -6.603
0.6649081670000072 -0.021 -0.755 0.885 46.145 -21.336 -7.069
0.6769806249999988 0.002 -0.688 0.908 52.145 -24.756 -7.687
0.6886958750000076 0.023 -0.641 0.91 66.489 -27.557 -3.55
0.6960746250000085 0.011 -0.595 0.866 78.748 -26.595 -6.061
0.7078231250000044 -0.001 -0.572 0.85 83.511 -26.733 -3.603
0.714882583000005 0.001 -0.597 0.822 84.366 -24.756 -2.282
0.7269293750000116 0.01 -0.601 0.808 80.71 -28.84 1.588
0.7342022500000098 -0.001 -0.56 0.784 71.542 -32.405 5.229
0.7460410000000053 -0.005 -0.547 0.776 66.58 -36.603 3.198
0.7580295000000064 0.042 -0.527 0.79 72.13 -47.901 2.901
0.765338958000001 0.074 -0.485 0.779 73.145 -45.397 3.198
0.7773501249999981 0.098 -0.455 0.769 72.725 -46.412 4.252
0.7846976670000032 0.128 -0.406 0.75 73.221 -45.275 7.679
0.7967282080000047 0.13 -0.376 0.704 65.374 -44.435 9.695
0.8085327920000083 0.148 -0.353 0.703 61.511 -44.595 10.542
0.8158862500000055 0.169 -0.358 0.688 59.893 -45.344 11.008
0.827564332999998 0.19 -0.354 0.692 59.84 -41.771 12.0
0.8348977500000103 0.209 -0.347 0.707 58.725 -36.443 13.992
0.8466949170000078 0.223 -0.335 0.684 58.901 -32.122 15.87
0.8587234170000073 0.229 -0.326 0.684 60.145 -29.481 18.443
0.8658139170000112 0.235 -0.309 0.644 57.565 -28.534 20.679
0.8778250000000014 0.229 -0.285 0.621 52.519 -30.305 20.962
0.8849092920000032 0.25 -0.226 0.637 46.275 -32.252 20.725
0.8970383330000118 0.273 -0.183 0.669 36.481 -31.099 23.275
0.9028182500000099 0.292 -0.151 0.679 29.779 -29.069 26.527
0.9159069580000079 0.283 -0.146 0.666 25.076 -28.206 26.328
0.9280859170000042 0.291 -0.14 0.649 22.702 -27.748 24.863
0.9351390830000099 0.288 -0.129 0.646 19.504 -25.962 25.817
0.9472362080000067 0.302 -0.115 0.659 20.473 -24.977 25.626
0.9542699170000049 0.306 -0.116 0.668 20.947 -22.763 26.183
0.9662747080000003 0.306 -0.12 0.661 22.145 -21.252 25.0
0.978025792000011 0.3 -0.114 0.677 20.053 -20.076 24.038
0.9853337079999989 0.308 -0.134 0.663 16.191 -18.771 23.656
0.9974546669999995 0.325 -0.149 0.677 8.565 -18.733 23.489
1.004481333000001 0.323 -0.105 0.676 -0.855 -18.939 23.137
1.0163639170000067 0.325 -0.071 0.679 -10.71 -21.504 18.824
1.028410375000007 0.354 -0.05 0.7 -23.901 -21.214 16.466
1.035622791999998 0.371 -0.058 0.719 -36.702 -18.504 16.618
1.0472402920000121 0.364 -0.037 0.733 -39.275 -22.076 15.817
1.0542974170000008 0.371 -0.025 0.769 -35.282 -24.779 15.557
1.0661343750000043 0.384 -0.039 0.788 -32.763 -24.252 12.832
1.0782047080000012 0.388 -0.03 0.816 -28.763 -22.305 10.641
1.085382958000011 0.393 -0.038 0.829 -21.771 -19.511 7.397
1.0972714580000087 0.405 -0.06 0.836 -15.855 -16.847 4.756
1.1043701250000026 0.413 -0.086 0.838 -14.756 -13.412 2.397
1.1163262920000108 0.433 -0.103 0.872 -14.832 -12.038 0.763
1.1281705420000065 0.422 -0.091 0.921 -14.893 -12.939 -1.542
1.1349730000000022 0.446 -0.084 0.936 -17.122 -14.443 0.779
1.1471349580000094 0.448 -0.092 0.934 -20.237 -16.504 -3.901
1.1540999580000033 0.447 -0.096 0.939 -25.786 -17.145 -7.084
1.1660632500000077 0.438 -0.116 0.947 -30.206 -16.099 -10.031
1.1779535420000116 0.452 -0.118 0.973 -29.817 -13.885 -11.557
1.1847714170000074 0.452 -0.111 0.995 -28.16 -10.58 -14.076
1.196785042000002 0.45 -0.112 0.996 -25.84 -6.939 -17.748
1.2084668749999992 0.443 -0.113 1.021 -23.649 -3.565 -20.656
1.2156030000000015 0.434 -0.125 1.021 -22.878 -1.099 -24.122
1.2276102500000121 0.422 -0.133 1.032 -20.588 1.58 -26.542
1.234689667000012 0.427 -0.176 1.056 -18.534 1.122 -27.336
1.246429333000009 0.45 -0.199 1.088 -25.046 -1.473 -27.893
1.2585461670000058 0.462 -0.227 1.109 -37.885 -6.244 -24.069
1.265586875000011 0.471 -0.264 1.121 -55.84 -5.855 -21.191
1.2773663749999997 0.471 -0.3 1.086 -79.305 -1.954 -17.29
1.2844561670000019 0.43 -0.3 1.093 -103.924 6.603 -18.244
1.2962278749999996 0.406 -0.344 1.09 -122.351 13.489 -12.015
1.3080317920000084 0.381 -0.37 1.052 -129.74 24.817 -11.237
1.3151676670000114 0.353 -0.415 1.049 -133.191 36.611 -10.534
1.3269517920000027 0.344 -0.453 1.037 -123.0 40.137 -13.176
1.3387089170000053 0.324 -0.488 1.023 -111.153 43.481 -14.885
1.345844833000001 0.31 -0.519 1.006 -94.725 46.939 -21.13
1.3576245 0.296 -0.56 0.999 -75.611 44.595 -21.008
1.364713542000004 0.277 -0.589 0.99 -60.809 45.221 -20.221
1.376484167000001 0.272 -0.595 0.939 -49.214 45.977 -19.229
1.3885616250000083 0.271 -0.558 0.928 -42.756 49.069 -18.962
1.3955712919999996 0.258 -0.551 0.899 -37.527 54.237 -20.191
1.4073750419999982 0.257 -0.532 0.884 -34.496 58.397 -22.16
1.414435042000008 0.249 -0.554 0.884 -36.725 58.954 -19.153
1.4262473750000026 0.241 -0.577 0.876 -31.046 57.397 -17.565
1.438252833000007 0.207 -0.59 0.859 -26.977 53.763 -11.802
1.4453000000000031 0.194 -0.618 0.851 -21.344 48.542 -8.802
1.457395333000008 0.193 -0.633 0.854 -20.382 46.107 -7.046
1.464516875000001 0.19 -0.643 0.848 -13.237 40.229 -2.168
1.4764652920000003 0.179 -0.642 0.807 -7.321 34.031 1.214
1.488715292000009 0.173 -0.61 0.792 -3.336 26.718 5.252
1.4960862500000047 0.146 -0.615 0.789 -0.611 22.305 6.672
1.5080319580000037 0.127 -0.628 0.754 6.191 23.397 4.397
1.5154497919999983 0.106 -0.592 0.765 11.618 25.878 1.702
1.5274228330000028 0.1 -0.579 0.747 20.427 22.656 -2.527
1.5347502919999982 0.093 -0.59 0.749 39.649 20.641 -5.374
1.5467711670000028 0.091 -0.59 0.729 51.771 19.756 -3.206
1.5587359579999998 0.105 -0.574 0.699 57.87 12.855 -5.13
1.5659960830000017 0.057 -0.525 0.76 65.832 8.229 5.74
1.5782862080000086 0.134 -0.551 0.729 68.695 7.443 -0.42
1.5855619579999995 0.186 -0.524 0.742 68.328 6.481 -7.695
1.5975858750000071 0.188 -0.517 0.754 66.26 7.756 -14.115
1.6046715829999982 0.208 -0.484 0.781 65.481 5.55 -17.519
1.6167423750000012 0.2 -0.463 0.783 61.298 2.336 -19.71
1.6287023750000031 0.206 -0.462 0.807 62.847 -1.305 -19.214
1.6357701250000076 0.201 -0.469 0.798 62.29 -5.344 -17.351
1.6477399999999989 0.188 -0.442 0.744 55.466 -11.053 -18.855
1.6546715830000096 0.172 -0.446 0.729 42.137 -18.947 -19.55
1.6664978750000046 0.173 -0.446 0.705 27.214 -20.107 -20.45
1.6784021670000016 0.198 -0.441 0.755 23.366 -22.664 -19.435
1.6851434579999989 0.234 -0.435 0.808 24.947 -22.756 -17.679
1.6974601670000027 0.265 -0.44 0.838 30.351 -21.137 -15.282
1.7041891670000098 0.278 -0.44 0.837 32.046 -20.374 -12.153
1.7162004170000102 0.275 -0.43 0.83 29.023 -19.252 -11.504
1.7282245000000103 0.265 -0.427 0.838 21.351 -18.748 -11.153
1.7349593750000025 0.279 -0.429 0.846 12.962 -18.863 -10.756
1.747197583000002 0.289 -0.443 0.862 2.802 -17.817 -8.748
1.7542435420000118 0.301 -0.42 0.883 -6.71 -14.176 -5.779
1.7661880420000102 0.315 -0.381 0.916 -13.832 -10.069 -3.298
1.778440500000002 0.313 -0.38 0.918 -18.611 -5.382 -1.733
1.7853991670000084 0.298 -0.383 0.916 -19.489 -1.435 -4.023
1.7975304580000113 0.289 -0.371 0.929 -18.634 2.985 -5.214
1.8046180420000013 0.282 -0.375 0.917 -15.527 6.733 -5.145
1.816604500000011 0.292 -0.39 0.945 -14.954 14.489 -4.0
1.8287622920000075 0.264 -0.408 0.951 -7.466 10.0 -1.58
1.8361300420000077 0.265 -0.438 0.94 -4.763 11.573 -0.649
1.8480466250000092 0.275 -0.424 0.927 -6.893 11.847 0.626
1.8554098330000102 0.271 -0.402 0.93 -11.405 12.282 -0.527
1.8672480830000069 0.263 -0.4 0.926 -16.26 13.641 -0.313
1.8744592920000116 0.276 -0.388 0.931 -13.298 8.122 -0.489
1.886497042000002 0.256 -0.401 0.905 -12.473 10.611 -3.687
1.898514917 0.249 -0.376 0.912 -12.313 9.947 -2.26
1.9055645830000003 0.229 -0.42 0.9 -9.74 10.924 -2.275
1.9176715000000115 0.226 -0.441 0.902 -10.672 9.206 -0.809
1.924896000000004 0.215 -0.44 0.911 -9.84 13.359 -1.534
1.9371429170000027 0.207 -0.445 0.906 6.977 5.779 -2.557
1.9445095420000058 0.224 -0.446 0.901 10.305 5.313 -3.496
1.9564653750000076 0.233 -0.425 0.89 6.527 6.099 -2.634
1.9687272920000112 0.236 -0.383 0.873 3.023 4.481 -3.397
1.976014125000006 0.245 -0.348 0.864 1.382 2.153 -9.321
1.9884535000000056 0.253 -0.325 0.873 2.069 0.206 -6.954
1.9958055419999994 0.244 -0.354 0.896 2.817 1.405 -6.611
