Time AX AY AZ GX GY GZ
0.019792292000005318 -0.285 -0.12 1.01 -5.282 10.924 6.344
0.026633125000003588 -0.321 -0.108 0.968 -8.198 14.771 10.115
0.038801958999997055 -0.368 -0.082 0.943 -16.061 17.779 13.763
0.05104791700000533 -0.386 -0.038 0.948 -16.664 19.183 17.13
0.057822041999997964 -0.399 -0.006 0.935 -21.855 26.473 22.649
0.07006333399999676 -0.416 0.015 0.858 -30.038 35.038 28.756
0.07710508399999583 -0.487 -0.027 0.757 -27.931 30.756 29.412
0.0891473340000033 -0.518 -0.071 0.671 -14.466 15.962 21.115
0.0968614169999995 -0.538 -0.048 0.63 3.779 -0.389 9.878
0.10856583400000375 -0.505 -0.048 0.65 18.641 -15.244 4.496
0.1204990840000022 -0.454 -0.006 0.639 27.687 -25.328 3.763
0.12778683400000546 -0.391 0.06 0.635 25.786 -27.878 7.916
0.1399971670000042 -0.36 0.052 0.652 12.427 -22.489 17.153
0.1471234170000031 -0.329 0.002 0.689 -5.26 -15.313 27.298
0.15918608399999812 -0.297 -0.043 0.685 -16.26 -6.557 41.962
0.17094529199999897 -0.339 -0.08 0.614 -16.405 -6.221 48.389
0.1782643749999977 -0.348 -0.051 0.512 -9.206 -19.092 43.847
0.19004908399999465 -0.337 -0.05 0.42 -5.481 -41.817 32.076
0.19736166699999558 -0.266 -0.14 0.453 7.153 -62.527 14.321
0.20940487500000415 -0.069 -0.219 0.528 13.832 -63.489 10.863
0.21668779200000188 0.009 -0.295 0.554 7.046 -54.794 18.84
0.22870920900000158 0.049 -0.345 0.553 9.664 -47.183 26.916
0.24073212499999386 0.067 -0.34 0.488 20.458 -49.466 34.351
0.24801225000000215 0.152 -0.292 0.401 38.733 -63.664 33.565
0.26006141700000285 0.279 -0.278 0.349 52.969 -73.771 33.458
0.26708816699999716 0.368 -0.29 0.416 54.275 -79.366 38.122
0.27912920900000415 0.525 -0.34 0.43 57.0 -77.954 39.389
0.286512541999997 0.644 -0.269 0.356 61.481 -80.985 43.328
0.2985522500000002 0.788 -0.337 0.452 38.443 -80.893 36.389
0.31050912499999583 0.948 -0.338 0.549 3.313 -80.244 35.214
0.3177844169999986 1.025 -0.428 0.677 -33.908 -66.336 35.542
0.32959308399999543 1.095 -0.502 0.782 -55.885 -47.519 40.29
0.3369615419999974 1.137 -0.509 0.81 -67.924 -29.824 51.359
0.3487087089999932 1.14 -0.512 0.785 -78.595 -14.702 55.901
0.3607783749999953 1.142 -0.539 0.824 -84.183 -0.557 53.038
0.368041833999996 1.161 -0.515 0.861 -95.0 16.351 49.557
0.38013191699999993 1.11 -0.573 0.911 -97.511 34.229 42.534
0.38748112499999365 1.018 -0.615 0.917 -89.237 46.313 31.908
0.3998147089999975 0.952 -0.584 0.877 -78.076 47.008 21.214
0.4066575420000049 0.917 -0.566 0.887 -67.756 40.588 19.626
0.41863587500000676 0.843 -0.556 0.914 -59.672 31.252 16.069
0.4306317089999965 0.83 -0.515 0.978 -50.137 20.084 12.275
0.4378296670000026 0.875 -0.454 1.051 -49.672 16.115 12.58
0.4498524589999988 0.837 -0.432 1.076 -54.099 12.092 8.885
0.45745070899999973 0.803 -0.415 1.019 -59.71 6.198 6.725
0.4694384590000027 0.773 -0.393 1.009 -65.985 1.122 5.252
0.4767454999999927 0.733 -0.436 0.987 -64.084 -4.939 2.641
0.48875474999999824 0.707 -0.506 1.017 -55.824 -11.046 -0.237
0.5009384589999968 0.709 -0.479 1.082 -48.298 -14.344 -1.038
0.5078348750000004 0.692 -0.428 1.044 -56.137 -13.527 5.435
0.520069792000001 0.778 -0.453 1.244 -51.198 -8.565 1.115
0.5273339999999962 0.785 -0.466 1.322 -55.634 8.992 -3.137
0.5394437089999968 0.731 -0.477 1.356 -53.618 22.397 -0.573
0.5464652090000044 0.623 -0.491 1.34 -42.267 26.908 -5.366
0.5585276669999928 0.517 -0.494 1.245 -34.176 24.969 -14.069
0.5705080839999965 0.425 -0.444 1.197 -27.183 14.015 -21.847
0.5775407919999935 0.423 -0.362 1.141 -18.916 1.527 -31.58
0.5895839169999988 0.384 -0.317 1.352 -16.924 -8.878 -40.832
0.5966493340000056 0.458 -0.376 1.135 -27.58 -6.802 -44.748
0.6087113340000059 0.482 -0.394 1.182 -33.954 1.008 -44.389
0.6207249590000004 0.44 -0.5 1.206 -29.328 2.771 -42.42
0.6280379589999967 0.434 -0.514 1.236 -27.641 5.855 -33.55
0.6400547500000044 0.399 -0.471 1.231 -23.382 8.366 -33.015
0.6473665420000003 0.358 -0.361 1.154 -18.244 7.29 -30.916
0.6593814590000022 0.318 -0.356 1.052 -25.931 7.42 -31.519
0.6664673340000036 0.284 -0.402 1.045 -30.985 7.718 -35.206
0.6785512919999945 0.28 -0.463 1.094 -25.366 6.435 -40.802
0.6904779169999955 0.276 -0.512 1.125 -14.229 7.176 -42.908
0.6977573340000021 0.239 -0.51 1.109 -9.305 10.687 -44.397
0.7098127919999939 0.22 -0.457 1.056 -6.214 12.313 -45.733
0.7170816250000058 0.197 -0.441 1.031 -5.885 12.115 -47.748
0.7291468749999979 0.18 -0.435 1.01 -4.939 11.771 -49.489
0.735137709 0.183 -0.403 1.012 -5.099 13.45 -49.115
0.7485548340000037 0.178 -0.424 1.009 0.832 15.481 -48.74
0.7605140839999933 0.166 -0.467 1.014 7.427 19.176 -45.878
0.7678352920000009 0.152 -0.481 1.023 12.145 19.786 -46.145
0.7798535419999979 0.128 -0.458 1.011 18.29 18.458 -48.366
0.7868967090000041 0.105 -0.434 0.962 23.565 15.084 -50.969
0.7988931670000028 0.092 -0.407 0.953 24.45 11.206 -51.206
0.8049944589999996 0.08 -0.386 0.954 23.267 6.954 -49.328
0.8185072499999961 0.101 -0.378 1.0 22.076 3.847 -49.794
0.8305069169999939 0.128 -0.372 1.028 17.565 5.122 -48.931
0.8377780839999929 0.114 -0.399 1.03 12.405 10.008 -46.046
0.8498583340000039 0.088 -0.427 1.017 10.641 13.573 -46.122
0.8568665840000023 0.062 -0.425 1.009 10.618 14.847 -44.756
0.8689217919999948 0.032 -0.406 1.0 13.763 14.542 -42.183
0.8809234170000053 0.016 -0.405 1.007 16.084 17.427 -37.229
0.8882178749999952 0.025 -0.403 1.006 14.992 20.214 -30.382
0.900271250000003 0.019 -0.403 0.999 10.275 22.26 -24.198
0.9073341250000055 -0.006 -0.429 0.999 11.473 21.832 -22.122
0.919422792000006 -0.024 -0.446 0.997 17.397 18.977 -21.122
0.9264849999999996 -0.021 -0.427 1.004 20.634 15.504 -19.924
0.9385443339999995 -0.036 -0.4 0.975 25.214 14.214 -18.084
0.9505174170000004 -0.039 -0.368 0.951 27.527 12.84 -16.397
0.957575625000004 -0.032 -0.368 0.955 26.015 13.435 -13.008
0.9696351669999927 -0.032 -0.372 0.964 26.282 13.267 -11.023
0.9766241250000007 -0.025 -0.378 0.979 26.649 13.939 -9.321
0.9887166670000056 -0.007 -0.345 0.967 26.794 14.695 -7.511
1.0007452499999943 -0.002 -0.351 0.96 21.565 16.214 -3.305
1.007873042 -0.028 -0.344 0.936 21.397 16.244 -3.718
1.0200380840000065 -0.029 -0.346 0.924 28.366 14.504 -3.618
1.0269346249999955 -0.013 -0.35 0.933 32.962 13.771 -2.725
1.039148291999993 0.017 -0.339 0.97 37.282 15.351 -2.656
1.0461378340000067 0.028 -0.307 0.938 33.435 17.038 1.786
1.0586345840000035 0.017 -0.289 0.921 28.473 17.084 3.435
1.064309209000001 0.008 -0.283 0.904 24.702 16.061 4.229
1.0781967089999966 0.004 -0.292 0.91 20.527 13.977 5.382
1.090679124999994 0.009 -0.292 0.891 22.931 14.214 6.977
1.0974293339999974 -0.001 -0.303 0.924 23.359 12.237 10.954
1.1099508749999956 0.005 -0.281 0.887 23.206 11.947 9.74
1.116964749999994 0.024 -0.295 0.902 24.847 11.473 12.275
1.1292128340000005 0.04 -0.274 0.906 23.947 12.328 14.595
1.1364009589999995 0.036 -0.28 0.891 23.435 11.588 16.275
1.148743667000005 0.035 -0.271 0.895 23.092 9.863 17.015
1.1544861670000017 0.065 -0.261 0.891 25.153 9.084 16.282
1.1683836250000041 0.088 -0.252 0.891 26.466 8.115 19.153
1.1807803749999977 0.062 -0.284 0.893 26.832 6.771 20.168
1.1880834170000014 0.075 -0.259 0.891 25.443 4.802 21.321
1.2002913750000062 0.084 -0.241 0.872 24.115 4.031 20.16
1.2077405419999963 0.096 -0.203 0.854 24.786 3.023 19.931
1.2198258340000052 0.097 -0.223 0.86 24.229 2.748 18.618
1.2271572089999978 0.11 -0.214 0.859 23.954 3.489 17.328
1.239383625000002 0.119 -0.214 0.85 22.832 4.42 16.74
1.246673666999996 0.128 -0.196 0.847 21.756 4.427 15.336
1.2590635419999927 0.138 -0.197 0.871 19.107 5.0 15.389
1.2709361250000057 0.14 -0.208 0.889 16.626 7.092 16.305
1.2785114170000043 0.146 -0.192 0.875 17.26 8.153 15.282
1.2904665420000043 0.136 -0.178 0.847 17.542 6.679 14.855
1.298015042000003 0.132 -0.186 0.844 18.374 2.733 12.779
1.3100124590000064 0.157 -0.177 0.849 17.153 0.504 12.198
1.3172979999999939 0.159 -0.212 0.877 16.58 -0.466 10.824
1.3296432089999968 0.16 -0.213 0.889 16.466 -1.573 10.71
1.3366587090000053 0.16 -0.211 0.891 15.168 -0.55 12.588
1.3487998749999974 0.163 -0.222 0.909 14.618 -0.046 14.237
1.3546050000000065 0.17 -0.218 0.912 15.824 0.779 14.153
1.3684953340000021 0.174 -0.214 0.891 16.504 0.191 12.389
1.3807552920000035 0.166 -0.209 0.882 15.901 0.015 11.901
1.3880564170000014 0.163 -0.188 0.872 16.366 0.603 11.137
1.4000180000000029 0.157 -0.163 0.864 15.618 -0.008 11.527
1.4075559589999926 0.14 -0.143 0.835 13.672 -1.618 9.771
1.4196208339999998 0.136 -0.148 0.849 11.084 -2.824 8.16
1.4271144169999985 0.147 -0.145 0.832 8.458 -2.267 7.336
1.4394006250000047 0.144 -0.168 0.857 7.992 -1.649 7.649
1.4466384170000026 0.153 -0.187 0.869 11.527 -1.198 6.695
1.4589366670000032 0.177 -0.18 0.892 12.611 -0.733 6.435
1.4648198750000034 0.181 -0.171 0.894 10.26 -0.359 6.397
1.4784809169999988 0.186 -0.179 0.91 8.344 -0.947 6.115
1.4906975420000066 0.182 -0.178 0.899 7.267 -0.061 7.206
1.4982697089999988 0.186 -0.181 0.884 4.969 1.87 8.641
1.5105072089999965 0.177 -0.183 0.896 4.153 2.084 10.427
1.5181479169999932 0.169 -0.184 0.879 4.084 2.198 9.389
1.5304999170000002 0.157 -0.165 0.855 5.191 1.878 8.374
1.538087791999999 0.148 -0.161 0.854 6.16 0.634 8.779
1.5502569169999987 0.152 -0.135 0.867 6.435 -1.092 7.061
1.5575329170000032 0.149 -0.142 0.879 4.496 -1.511 6.84
1.5697879589999957 0.156 -0.152 0.879 2.511 -1.511 8.359
1.577378667000005 0.156 -0.167 0.888 1.427 -1.412 8.725
1.589647291999995 0.174 -0.181 0.9 2.176 -1.099 8.962
1.5971646670000013 0.183 -0.186 0.915 2.389 -0.26 8.573
1.6093834170000036 0.187 -0.172 0.918 1.206 0.962 8.389
1.616871083999996 0.187 -0.161 0.9 0.282 2.305 8.878
1.6291115840000003 0.182 -0.156 0.896 1.237 2.305 7.198
1.6366230000000002 0.175 -0.128 0.887 2.672 0.115 4.42
1.6489021250000064 0.18 -0.132 0.887 -0.489 -0.534 4.198
1.6548531250000025 0.18 -0.12 0.901 -1.458 -0.046 3.45
1.6684991249999968 0.177 -0.138 0.908 -2.924 -0.473 4.229
1.6806930420000015 0.162 -0.149 0.898 -1.939 -0.069 3.679
1.687986459000001 0.165 -0.151 0.903 -0.656 -1.382 2.947
1.7002563340000023 0.181 -0.145 0.932 -3.298 -0.817 4.092
1.7075252089999964 0.18 -0.161 0.935 -0.863 0.092 3.725
1.7198175839999976 0.187 -0.162 0.942 -2.412 1.74 4.641
1.7273218339999943 0.199 -0.151 0.954 -4.26 2.916 2.817
1.739579083999999 0.189 -0.164 0.942 -3.336 1.832 0.122
1.7471416249999976 0.176 -0.169 0.955 -4.115 0.947 0.221
1.7593638339999984 0.175 -0.186 0.96 -4.359 0.649 1.763
1.7666661250000004 0.181 -0.193 0.963 -4.244 0.901 2.733
1.778911334 0.173 -0.183 0.958 -5.336 1.115 2.679
1.7864823339999987 0.166 -0.178 0.938 -5.076 -0.244 1.672
1.7984853340000058 0.163 -0.179 0.937 -4.053 -2.458 1.901
1.8107179590000015 0.165 -0.159 0.945 -2.58 -4.275 2.763
1.8179771669999951 0.167 -0.142 0.95 -1.702 -5.649 2.519
1.8302382499999936 0.179 -0.137 0.951 -2.244 -5.916 0.427
1.8375479999999982 0.175 -0.147 0.95 -1.519 -6.298 0.023
1.8498129590000048 0.179 -0.146 0.961 -2.374 -5.519 0.366
1.8570660000000032 0.182 -0.152 0.951 -3.092 -4.557 1.58
1.8693575839999994 0.187 -0.151 0.944 -3.893 -3.931 1.702
1.8764545420000047 0.188 -0.156 0.952 -5.237 -2.687 2.992
1.8887847499999992 0.178 -0.176 0.938 -4.252 -3.687 0.053
1.9010146669999983 0.187 -0.158 0.962 -3.153 -5.275 -1.931
1.9083049999999986 0.186 -0.146 0.946 -6.084 -3.573 0.931
1.9203346249999953 0.174 -0.151 0.946 -6.511 -1.855 1.985
1.927626250000003 0.174 -0.147 0.954 -6.649 -1.176 1.405
1.9399632500000052 0.178 -0.163 0.961 -7.969 -0.893 0.786
1.9473048339999934 0.188 -0.169 0.964 -9.038 -1.137 0.336
1.9594445839999963 0.175 -0.174 0.975 -7.817 -0.687 -0.252
1.966699042000002 0.171 -0.178 0.968 -8.29 0.527 0.382
1.979217583999997 0.168 -0.177 0.954 -6.748 0.924 0.115
1.9862319169999978 0.16 -0.18 0.962 -5.328 0.168 -0.779
1.9984466249999997 0.166 -0.17 0.948 -6.221 -0.023 -0.611
