Time AX AY AZ GX GY GZ
0.01282204200001047 -0.148 -0.172 0.977 -0.695 -2.55 4.099
0.019774167000008447 -0.138 -0.186 0.975 1.145 -2.023 5.16
0.032266375000006065 -0.131 -0.197 0.98 2.42 -2.908 6.611
0.044464875000002735 -0.12 -0.18 0.981 1.473 -3.649 8.588
0.0516359169999987 -0.113 -0.161 0.978 2.137 -4.267 9.275
0.06381666699999755 -0.094 -0.155 0.983 3.908 -5.145 8.16
0.07115333299999804 -0.071 -0.148 0.982 3.672 -5.496 6.969
0.08362183300000936 -0.061 -0.142 0.986 3.214 -4.771 6.321
0.09065237500000478 -0.056 -0.138 1.004 3.687 -3.695 6.153
0.10278087500000765 -0.044 -0.145 0.991 2.069 -2.595 6.969
0.1100027500000067 -0.052 -0.142 0.989 0.053 -2.305 7.405
0.12204499999999996 -0.055 -0.132 0.991 0.092 -2.374 7.183
0.1342934999999983 -0.052 -0.127 1.003 0.588 -2.527 5.824
0.1415644169999979 -0.043 -0.121 1.008 0.229 -1.252 4.595
0.1535656670000094 -0.041 -0.121 1.027 0.603 0.55 3.382
0.16115958299999988 -0.054 -0.125 1.015 0.031 1.847 2.863
0.1732525000000038 -0.073 -0.142 1.017 -0.679 3.076 1.947
0.18049737500000163 -0.081 -0.145 1.006 -0.939 3.58 1.13
0.1926430000000039 -0.092 -0.154 0.997 0.42 3.229 0.168
0.1999642920000042 -0.104 -0.174 1.0 1.679 2.855 0.29
0.2121930830000025 -0.093 -0.174 1.004 2.244 2.641 0.061
0.2243765000000053 -0.099 -0.178 0.992 2.794 2.603 0.427
0.23175237499999923 -0.104 -0.171 0.985 1.595 2.718 1.87
0.24380975000001115 -0.099 -0.154 0.963 0.603 2.992 2.427
0.25104662500000074 -0.103 -0.145 0.949 -0.244 2.038 2.435
0.2634890830000103 -0.093 -0.122 0.953 -0.328 1.527 0.565
0.27068220800001086 -0.099 -0.135 0.96 3.443 2.42 0.183
0.2829347079999991 -0.115 -0.129 0.946 2.313 1.664 0.947
0.2902097080000061 -0.119 -0.14 0.958 2.389 2.87 -0.885
0.3021770830000037 -0.114 -0.127 0.953 3.084 2.038 -0.557
0.314097916999998 -0.108 -0.117 0.949 5.863 2.595 -1.71
0.3214295000000078 -0.109 -0.121 0.938 6.046 1.649 -0.863
0.3333881670000096 -0.125 -0.115 0.907 5.061 -0.496 -1.931
0.34075741700000606 -0.111 -0.108 0.917 8.13 -2.0 -3.634
0.35278583299999866 -0.104 -0.089 0.922 8.321 -3.962 -3.069
0.3600870420000035 -0.116 -0.067 0.903 4.275 -4.405 -2.191
0.3721195420000072 -0.132 -0.063 0.89 4.076 -8.336 -5.214
0.3839322080000045 -0.103 -0.083 0.925 8.061 -11.275 -7.168
0.3912080830000093 -0.055 -0.091 0.924 8.687 -11.405 -3.145
0.40331658300000583 -0.065 -0.094 1.014 4.618 -9.42 -1.0
0.41025912500001027 -0.024 -0.071 0.984 3.122 -4.321 -0.641
0.4222771670000043 -0.02 -0.064 0.969 -2.198 -2.45 -0.435
0.43436608300000046 -0.032 -0.046 0.951 -2.26 -2.992 -3.939
0.4414380420000015 -0.032 -0.037 0.919 -2.817 -3.153 -5.427
0.4534117500000008 -0.035 -0.047 0.901 -2.344 -5.84 -7.969
0.46052708300000234 -0.03 -0.073 0.916 -0.725 -8.718 -9.084
0.47227895800000397 -0.013 -0.087 0.919 -2.939 -11.748 -10.824
0.4841495000000009 0.025 -0.089 0.975 -5.748 -12.534 -13.344
0.49120837499999936 0.045 -0.115 0.995 -7.412 -12.489 -13.817
0.5029724999999985 0.026 -0.11 1.002 -12.573 -14.725 -18.305
0.510051666999999 0.061 -0.118 1.068 -7.046 -13.237 -26.107
0.5220762080000014 0.075 -0.116 1.08 -4.588 -9.237 -20.695
0.5340954580000101 0.039 -0.156 1.093 -7.008 -5.664 -20.794
0.5411996670000008 0.02 -0.157 1.108 -10.198 -0.183 -15.863
0.552975791999998 -0.017 -0.159 1.089 -13.573 1.649 -15.58
0.5600674169999991 -0.044 -0.123 1.088 -16.13 2.244 -17.534
0.5718396250000097 -0.063 -0.119 1.121 -16.511 1.26 -21.504
0.5838952499999976 -0.077 -0.083 1.141 -18.328 1.198 -25.664
0.5909327920000038 -0.093 -0.09 1.184 -16.336 2.489 -29.328
0.6027437919999983 -0.12 -0.135 1.208 -14.992 3.382 -28.489
0.6098105420000053 -0.125 -0.252 1.206 -22.046 4.489 -37.145
0.621612583000001 -0.205 -0.136 1.265 -33.427 2.595 -38.427
0.6333662079999982 -0.224 -0.256 1.28 -26.489 11.519 -29.16
0.6404833750000023 -0.231 -0.29 1.276 -24.771 7.252 -27.969
0.652302583000008 -0.229 -0.298 1.273 -30.84 10.466 -26.863
0.6640725830000065 -0.258 -0.291 1.274 -30.863 13.107 -27.244
0.6711994170000111 -0.303 -0.33 1.237 -26.863 15.725 -24.145
0.6829840420000011 -0.308 -0.352 1.174 -27.038 13.947 -23.038
0.6901028329999974 -0.354 -0.365 1.135 -25.595 11.931 -16.13
0.7018529999999998 -0.326 -0.35 1.116 -21.443 9.42 -9.504
0.713903208000005 -0.313 -0.353 1.116 -14.42 7.015 -5.359
0.7212016250000062 -0.285 -0.337 1.115 -6.618 5.389 -3.809
0.7332594169999993 -0.273 -0.368 1.103 5.893 5.702 -0.412
0.7404953329999984 -0.267 -0.414 1.103 14.267 4.626 2.305
0.7525059170000077 -0.276 -0.432 1.07 16.901 3.947 3.107
0.7597990419999974 -0.345 -0.39 1.037 17.336 2.397 13.832
0.7718757080000103 -0.348 -0.359 1.003 19.87 1.305 23.45
0.7838725830000044 -0.339 -0.314 0.963 19.702 -2.221 29.878
0.7909641669999985 -0.323 -0.284 0.95 23.092 -5.168 32.565
0.802981250000002 -0.313 -0.268 0.942 27.924 -7.763 33.038
0.8100116669999977 -0.296 -0.261 0.92 30.511 -10.58 31.672
0.8219007080000011 -0.275 -0.253 0.914 31.389 -12.74 28.763
0.8336499580000094 -0.266 -0.241 0.927 24.42 -11.542 23.55
0.8409470830000032 -0.216 -0.254 0.847 21.573 -7.977 27.389
0.8527968750000099 -0.197 -0.274 0.829 18.244 -9.901 30.992
0.8597672500000044 -0.168 -0.266 0.761 19.458 -10.321 37.748
0.8718727500000085 -0.172 -0.257 0.714 19.359 -13.771 43.748
0.883672292 -0.135 -0.269 0.657 21.053 -17.84 48.824
0.8907501250000109 -0.121 -0.289 0.646 29.13 -24.099 51.71
0.9025163330000083 -0.08 -0.278 0.64 36.252 -29.366 54.107
0.9087078330000082 -0.032 -0.23 0.622 38.084 -32.198 57.176
0.9216289579999994 0.025 -0.162 0.584 36.809 -30.489 58.328
0.9336825000000033 0.067 -0.094 0.558 27.015 -31.267 60.435
0.9407330000000087 0.106 -0.055 0.562 22.626 -30.435 59.16
0.9527832079999996 0.129 -0.054 0.544 21.824 -30.504 61.206
0.9598330000000033 0.134 -0.037 0.543 22.13 -32.809 66.481
0.971890541999997 0.189 -0.021 0.545 19.405 -30.824 56.962
0.9839221250000065 0.214 0.0 0.543 13.435 -30.389 52.305
0.9909572500000081 0.246 -0.019 0.606 10.183 -30.45 49.107
1.0028957080000112 0.247 -0.029 0.656 4.053 -23.069 48.71
1.009792791999999 0.28 -0.006 0.656 -2.076 -22.443 49.244
1.021798375000003 0.282 0.014 0.657 -9.71 -18.122 48.099
1.0342139580000094 0.271 0.013 0.664 -19.466 -15.534 44.389
1.0407585829999988 0.283 0.034 0.685 -29.496 -15.282 41.321
1.053115500000004 0.264 0.042 0.685 -33.45 -15.992 32.771
1.0597687919999998 0.308 0.05 0.728 -35.702 -14.122 28.802
1.0720703750000098 0.32 0.027 0.764 -37.55 -15.779 22.824
1.0843307500000066 0.338 0.025 0.785 -41.42 -13.908 18.481
1.0910377080000018 0.36 0.002 0.824 -46.969 -11.229 14.58
1.1032664170000004 0.379 0.002 0.883 -55.107 -2.565 11.366
1.1102998750000097 0.387 0.02 0.922 -63.122 6.863 10.038
1.12254762500001 0.388 0.039 0.952 -65.977 12.504 7.244
1.1295704999999998 0.351 0.034 0.98 -65.763 11.672 2.931
1.1418310829999996 0.323 0.015 0.962 -65.29 12.076 -4.183
1.1540564579999995 0.284 -0.031 0.957 -59.588 13.962 -10.229
1.1609935830000069 0.259 -0.065 0.988 -52.45 12.489 -17.191
1.1729130829999974 0.241 -0.097 0.996 -38.962 12.695 -20.969
1.1797729170000082 0.233 -0.104 1.033 -25.626 12.511 -24.817
1.1916610000000105 0.245 -0.083 1.073 -13.786 15.748 -26.725
1.20387954200001 0.246 -0.093 1.102 -6.954 19.573 -30.359
1.210927292000008 0.219 -0.063 1.176 -0.168 22.557 -23.626
1.2230050420000111 0.2 -0.066 1.177 -3.504 23.359 -25.473
1.230021958000009 0.182 -0.052 1.197 -8.168 21.565 -35.29
1.2420878329999994 0.165 -0.087 1.208 -11.275 19.565 -46.282
1.2538262919999994 0.127 -0.134 1.212 -7.87 16.023 -54.519
1.26120395800001 0.109 -0.148 1.241 -2.137 13.901 -56.863
1.2732585420000078 0.079 -0.159 1.245 3.977 10.344 -59.893
1.2805223330000075 0.061 -0.161 1.26 7.206 6.855 -61.374
1.292486083 0.024 -0.16 1.269 6.321 3.756 -62.145
1.299505417000006 0.003 -0.143 1.305 5.122 1.901 -64.527
1.3115979580000072 -0.024 -0.153 1.306 6.885 1.931 -66.985
1.3238124169999992 -0.046 -0.198 1.321 10.817 3.786 -66.992
1.3307052920000046 -0.084 -0.231 1.309 13.534 7.679 -65.618
1.3427606670000074 -0.113 -0.244 1.292 12.405 12.168 -62.405
1.3498305000000101 -0.139 -0.25 1.259 8.031 16.794 -56.679
1.3618803749999984 -0.178 -0.236 1.205 4.008 19.626 -50.695
1.3738752080000012 -0.216 -0.219 1.146 0.939 18.901 -47.389
1.3809275420000091 -0.233 -0.208 1.119 3.275 15.985 -46.42
1.3929568329999995 -0.246 -0.235 1.1 8.427 12.511 -46.359
1.4000959170000016 -0.249 -0.255 1.076 12.542 8.336 -45.443
1.4120565000000056 -0.234 -0.239 1.042 9.206 4.13 -43.496
1.4240958330000097 -0.219 -0.253 1.026 1.809 1.0 -41.313
1.4313991670000092 -0.169 -0.306 1.053 -0.008 1.786 -38.206
1.443246583000004 -0.138 -0.331 1.055 -2.053 3.87 -31.26
1.4506192080000062 -0.149 -0.335 1.035 -7.374 7.267 -25.405
1.462299625 -0.161 -0.347 0.991 -13.878 9.16 -19.908
1.4740743330000043 -0.18 -0.367 0.95 -18.412 8.115 -16.221
1.4812044170000007 -0.18 -0.367 0.935 -21.305 5.702 -12.779
1.4932995000000062 -0.158 -0.376 0.899 -21.771 4.87 -10.504
1.5002732500000064 -0.133 -0.381 0.891 -20.527 3.466 -8.962
1.5123350420000037 -0.133 -0.364 0.865 -17.992 4.076 -5.725
1.5241330420000025 -0.128 -0.376 0.833 -19.931 4.443 -3.969
1.5314780420000034 -0.119 -0.376 0.809 -20.443 3.649 -3.084
1.5432342920000082 -0.114 -0.369 0.812 -19.053 2.817 -1.244
1.5504858330000104 -0.091 -0.39 0.815 -11.916 2.275 -0.649
1.5624912500000079 -0.087 -0.389 0.812 -6.023 1.412 1.412
1.5698005830000028 -0.078 -0.356 0.813 -3.267 2.473 3.87
1.581829667000008 -0.084 -0.352 0.816 -1.748 2.924 5.534
1.5941411250000073 -0.077 -0.317 0.82 -2.321 3.397 8.939
1.6011486250000075 -0.072 -0.3 0.82 -2.405 4.153 10.939
1.613265042000009 -0.075 -0.275 0.831 -1.061 4.038 10.229
1.620710041999999 -0.071 -0.264 0.829 2.137 2.969 9.771
1.6327429170000016 -0.062 -0.252 0.835 5.092 2.13 9.229
1.6402795830000088 -0.049 -0.222 0.86 6.473 2.275 8.618
1.6523258330000061 -0.036 -0.212 0.879 10.947 2.389 7.618
1.6643060420000069 -0.019 -0.193 0.902 13.115 2.519 6.863
1.6716430419999995 -0.012 -0.199 0.915 12.55 3.099 5.389
1.6838839170000028 -0.005 -0.213 0.96 12.885 5.336 4.626
1.691192375 -0.0 -0.231 0.979 12.229 6.046 3.656
1.7032624579999975 -0.004 -0.225 0.978 11.863 7.344 2.855
1.710533292000008 -0.003 -0.232 1.003 10.603 8.229 3.687
1.7228141670000099 -0.015 -0.217 1.005 6.206 9.023 6.397
1.7300650000000104 -0.019 -0.205 1.005 1.855 9.626 6.855
1.7420666250000068 -0.024 -0.197 0.999 -1.115 8.702 6.038
1.7543066249999981 -0.016 -0.177 1.006 -2.504 8.55 4.985
1.7616552920000004 -0.022 -0.176 0.995 -3.176 8.176 3.336
1.7736092920000033 -0.028 -0.186 0.996 -2.573 7.092 2.771
1.7809574999999995 -0.027 -0.182 0.995 -0.626 6.74 0.809
1.7933118750000006 -0.025 -0.189 0.999 0.977 5.641 0.969
1.8005235830000004 -0.018 -0.175 0.998 0.115 4.771 -0.153
1.8126604170000036 -0.004 -0.191 1.007 1.122 5.359 -1.275
1.8198709580000099 -0.011 -0.197 1.0 1.702 5.74 -1.366
1.8318354170000077 -0.032 -0.213 0.98 2.099 5.626 -0.16
1.8442170000000004 -0.063 -0.222 0.958 1.878 4.252 0.496
1.8513755419999995 -0.074 -0.229 0.959 3.336 2.214 0.374
1.863692042000011 -0.077 -0.218 0.956 5.832 0.053 0.374
1.8709483330000012 -0.082 -0.218 0.957 9.863 -1.069 0.977
1.8829660420000067 -0.066 -0.217 0.957 10.756 -3.435 1.725
1.8903099999999995 -0.056 -0.193 0.972 10.244 -4.0 0.702
1.9023183750000072 -0.042 -0.189 0.988 10.275 -3.679 0.542
1.9143001670000075 -0.035 -0.177 0.976 9.649 -3.305 0.191
1.9216359580000102 -0.034 -0.188 0.981 7.771 -3.252 -0.878
1.9336399170000078 -0.052 -0.197 0.971 4.863 -2.832 -0.725
1.9407472080000048 -0.054 -0.216 0.968 3.71 -2.954 -1.214
1.9527437920000068 -0.056 -0.205 0.965 1.809 -3.962 -0.443
1.9600433330000016 -0.043 -0.2 0.976 0.069 -4.519 -0.527
1.9721204169999993 -0.028 -0.214 0.984 1.298 -3.611 -0.916
1.9841292500000094 -0.018 -0.205 0.996 -1.092 -2.603 1.489
1.991366499999998 -0.033 -0.203 0.977 -2.641 0.092 3.153
2.0033976670000015 -0.037 -0.19 0.982 -5.824 0.115 3.466
