Time AX AY AZ GX GY GZ
0.014660333000009018 0.184 -0.132 0.966 -3.29 1.962 0.107
0.027260583000000338 0.183 -0.134 0.961 -3.863 2.145 0.412
0.03417625000000157 0.172 -0.151 0.949 -2.366 2.244 -1.015
0.046796874999998295 0.171 -0.161 0.959 0.214 1.496 -1.008
0.05421687500000871 0.182 -0.157 0.962 1.824 0.794 -0.359
0.06636666600000751 0.182 -0.161 0.959 2.809 0.718 -1.031
0.07218733300000224 0.183 -0.152 0.946 3.305 0.427 -1.053
0.08625154100000998 0.184 -0.135 0.953 3.534 0.351 -1.466
0.0983794580000108 0.184 -0.123 0.955 0.878 1.115 -0.824
0.10597379100001092 0.179 -0.125 0.947 -0.473 1.595 -0.969
0.11795779100000914 0.174 -0.132 0.957 -0.595 1.458 -0.74
0.12548016600000267 0.173 -0.151 0.962 0.313 0.893 -1.16
0.1377358330000078 0.176 -0.166 0.956 2.336 -0.58 -1.359
0.14496025000001111 0.186 -0.164 0.969 4.351 -1.748 -2.008
0.15729354100000137 0.203 -0.158 0.971 4.122 -0.344 -1.916
0.16461170800000957 0.208 -0.139 0.978 1.885 1.115 -1.336
0.17666837500000554 0.188 -0.133 0.965 0.794 2.71 -1.481
0.18388529100000994 0.181 -0.122 0.943 -0.374 2.908 -1.588
0.19606362500000785 0.171 -0.137 0.951 -0.076 2.061 -1.817
0.20855791600000373 0.174 -0.141 0.949 1.29 1.74 -2.344
0.215828958000003 0.179 -0.146 0.953 2.145 1.344 -1.809
0.22834000000000287 0.18 -0.148 0.959 2.809 0.947 -2.687
0.23556929100000445 0.188 -0.141 0.952 2.13 1.817 -2.756
0.24811012500001084 0.185 -0.14 0.951 2.359 1.496 -2.87
0.255094291000006 0.188 -0.132 0.946 1.252 1.786 -2.023
0.2675749580000115 0.195 -0.135 0.958 -0.305 1.817 -2.0
0.27461479100000474 0.187 -0.133 0.947 -0.511 1.733 -2.069
0.2871071250000057 0.182 -0.139 0.94 0.16 2.504 -2.641
0.2944087910000093 0.182 -0.142 0.949 0.84 1.832 -3.168
0.30693100000000584 0.181 -0.147 0.95 2.229 1.282 -3.817
0.31415579100000457 0.183 -0.146 0.946 3.611 -0.405 -3.908
0.3263072080000029 0.196 -0.138 0.954 2.053 -0.405 -3.794
0.33357058300001086 0.189 -0.133 0.959 0.42 0.13 -3.092
0.3458451660000037 0.183 -0.124 0.954 -1.137 1.252 -1.748
0.3583376250000043 0.174 -0.134 0.939 -1.588 0.794 -1.198
0.3653465410000081 0.171 -0.138 0.946 -0.42 0.038 -1.641
0.37786150000000873 0.178 -0.137 0.955 0.0 -1.55 -0.046
0.3848620410000052 0.18 -0.147 0.96 0.992 -1.183 -0.183
0.3973674160000087 0.179 -0.143 0.949 1.71 -1.221 -0.672
0.40440158300000917 0.178 -0.134 0.962 1.069 -0.687 -0.786
0.4170198330000119 0.181 -0.135 0.95 0.878 -0.947 -1.221
0.42394187500001124 0.172 -0.124 0.951 0.122 -0.977 -1.458
0.43647404100001097 0.169 -0.12 0.948 -1.252 -0.748 -1.878
0.44858812500000056 0.173 -0.128 0.951 -2.145 -0.519 -2.252
0.4558049160000053 0.159 -0.13 0.948 -1.74 -0.649 -2.824
0.4679330410000091 0.155 -0.123 0.947 -1.008 -0.962 -2.336
0.47513941600000464 0.147 -0.135 0.946 -0.229 -0.779 -2.351
0.4873836659999995 0.149 -0.128 0.98 -0.603 -1.198 -1.786
0.4945973750000121 0.127 -0.115 0.979 0.26 -1.779 -3.221
0.5070027500000123 0.096 -0.091 0.976 0.206 -4.069 -4.298
0.5144649580000049 0.071 -0.072 0.985 -1.466 -5.382 -5.107
0.5263320000000107 0.054 -0.058 0.991 -3.962 -4.771 -3.076
0.5387487910000033 0.01 -0.09 0.984 -4.817 -5.489 0.382
0.5458359160000015 -0.027 -0.109 1.008 -4.771 -5.412 1.244
0.5578940830000079 -0.072 -0.117 1.035 -3.527 -6.603 2.519
0.5648869580000024 -0.122 -0.104 1.066 -1.344 -7.985 3.366
0.5773797500000057 -0.179 -0.071 1.084 1.45 -9.763 3.176
0.5841612910000009 -0.231 -0.036 1.081 6.756 -11.267 -0.565
0.5962903750000095 -0.23 -0.002 1.099 10.412 -10.145 -2.565
0.6085790830000093 -0.269 -0.059 1.101 11.855 -8.687 -3.038
0.6157663330000105 -0.303 -0.072 1.111 15.87 -7.244 -5.023
0.6279207080000049 -0.345 -0.1 1.149 21.008 -8.16 -7.092
0.6347079160000106 -0.372 -0.129 1.257 28.718 -7.366 -8.664
0.6469176660000073 -0.344 -0.087 1.312 30.267 -0.115 -7.763
0.6540595000000025 -0.351 -0.029 1.36 35.763 10.183 -0.618
0.6665986659999987 -0.381 0.023 1.299 38.718 22.817 2.817
0.6785946250000023 -0.406 0.0 1.241 31.84 28.588 16.412
0.6859134580000017 -0.327 0.169 1.182 46.45 22.435 7.992
0.6981664160000065 -0.299 0.21 1.031 40.748 19.779 4.115
0.7054619580000008 -0.295 0.201 0.929 35.511 16.473 1.031
0.7177345000000059 -0.279 0.173 0.862 30.412 17.115 2.588
0.7249902080000084 -0.269 0.086 0.837 26.702 20.321 8.344
0.7372986250000082 -0.255 0.057 0.86 25.908 18.053 15.901
0.7445800410000061 -0.206 0.068 0.869 17.504 15.878 22.557
0.7565924160000037 -0.177 0.124 0.838 6.855 16.71 29.664
0.7641293750000102 -0.183 0.138 0.764 4.74 15.87 37.809
0.7760051250000117 -0.157 0.118 0.658 3.71 17.672 39.733
0.788597375000009 -0.221 0.043 0.46 -11.641 8.237 43.748
0.795329541000001 -0.205 -0.084 0.551 -8.962 -11.656 49.115
0.8075091250000099 0.064 -0.139 0.629 6.733 -15.855 37.122
0.8148067500000025 -0.019 -0.248 0.554 6.947 -23.344 30.885
0.8268170000000055 0.187 -0.342 0.654 4.305 -30.55 33.748
0.8341610410000015 0.324 -0.424 0.719 -15.893 -27.115 42.092
0.8458949580000024 0.336 -0.497 0.637 -18.992 -17.298 41.382
0.8580630410000083 0.385 -0.46 0.594 -19.458 -3.489 48.397
0.8653450000000049 0.33 -0.427 0.384 -17.649 0.695 58.817
0.877302708000002 0.293 -0.435 0.256 -11.0 -2.817 74.29
0.8848805000000084 0.306 -0.471 0.169 9.076 -1.282 55.359
0.8969278330000066 0.528 -0.459 0.366 19.908 -17.466 74.0
0.9028898749999996 0.589 -0.546 0.383 32.069 -19.977 65.947
0.915930416000009 0.697 -0.852 0.642 10.55 -38.183 65.908
0.9281765830000097 0.934 -0.265 0.667 9.939 -33.26 73.0
0.9355776660000004 0.934 -0.353 0.532 1.206 -47.824 51.214
0.9472574580000099 0.891 -0.335 0.482 -19.137 -62.511 34.26
0.9546078330000114 0.842 -0.376 0.543 -46.504 -75.756 31.16
0.9663359580000019 0.863 -0.313 0.569 -64.885 -74.916 27.42
0.978402666000008 0.858 -0.326 0.601 -84.618 -61.031 36.702
0.9854484580000076 0.883 -0.316 0.647 -96.046 -39.954 45.542
0.9975120000000004 0.847 -0.332 0.663 -106.29 -21.252 49.046
1.0045674160000004 0.799 -0.397 0.72 -101.145 -15.824 51.603
1.0163803750000113 0.743 -0.48 0.725 -89.176 -21.427 58.038
1.0283955830000053 0.759 -0.46 0.844 -71.588 -24.947 48.573
1.0354775410000059 0.779 -0.421 0.866 -61.145 -32.099 37.847
1.047521708000005 0.786 -0.398 0.907 -52.557 -39.733 26.466
1.054588166000002 0.778 -0.38 0.941 -44.313 -43.351 18.351
1.0665800000000019 0.794 -0.351 0.979 -38.244 -41.878 14.809
1.0786232909999995 0.798 -0.343 0.966 -38.504 -36.687 12.092
1.0857199579999985 0.802 -0.355 0.972 -39.595 -31.206 10.855
1.0977303750000118 0.813 -0.344 0.985 -43.496 -25.855 9.183
1.1049870000000084 0.808 -0.303 0.955 -48.809 -18.733 9.802
1.1171068750000046 0.772 -0.311 0.942 -51.794 -13.275 6.786
1.1243587080000026 0.756 -0.323 0.941 -51.878 -9.573 3.786
1.136369375000001 0.748 -0.354 0.967 -52.053 -5.275 -0.214
1.148388208 0.714 -0.4 1.041 -52.046 -0.389 -4.748
1.1556831660000029 0.706 -0.368 1.06 -49.58 4.16 -7.595
1.1677310410000104 0.642 -0.366 1.051 -46.626 6.137 -12.137
1.17478941600001 0.59 -0.349 1.001 -41.802 3.74 -17.038
1.1867968330000025 0.581 -0.317 1.006 -34.847 -1.298 -18.985
1.1926923750000071 0.604 -0.318 1.024 -34.527 -3.641 -21.053
1.2059300000000093 0.627 -0.346 1.083 -35.015 -4.359 -23.443
1.217956208000004 0.652 -0.375 1.144 -41.481 -2.649 -21.763
1.2250347080000097 0.624 -0.365 1.176 -45.962 2.481 -21.74
1.2370875410000082 0.577 -0.375 1.145 -46.069 7.557 -19.756
1.2443085000000025 0.515 -0.385 1.114 -44.45 7.588 -19.977
1.2563558750000112 0.495 -0.379 1.09 -42.802 6.076 -21.252
1.2684019579999983 0.499 -0.375 1.075 -45.107 6.183 -25.504
1.2757061660000062 0.484 -0.39 1.104 -50.076 7.985 -27.282
1.2877631660000048 0.442 -0.46 1.121 -44.992 8.321 -27.473
1.2947450830000093 0.374 -0.565 1.129 -36.458 6.733 -26.756
1.3067832910000021 0.426 -0.487 1.149 -26.924 7.779 -30.794
1.3141175830000122 0.423 -0.478 1.122 -20.916 9.29 -31.359
1.3262285830000025 0.417 -0.469 1.105 -18.321 12.977 -31.397
1.338029750000004 0.404 -0.476 1.062 -15.687 15.626 -32.42
1.3454154160000087 0.387 -0.479 1.058 -14.405 18.832 -34.214
1.3571490409999996 0.378 -0.488 1.058 -13.626 21.885 -33.489
1.3643911250000116 0.362 -0.497 1.066 -11.611 24.565 -33.107
1.376409833000011 0.336 -0.501 1.083 -9.771 24.855 -33.145
1.3885409160000108 0.319 -0.476 1.064 -6.771 24.733 -31.885
1.395596083000001 0.303 -0.458 1.06 -5.817 23.87 -32.229
1.407545416000005 0.287 -0.466 1.039 -7.931 24.534 -34.42
1.4149942080000102 0.286 -0.453 1.027 -6.137 26.733 -34.397
1.4270450409999995 0.252 -0.474 0.985 -3.504 28.382 -34.473
1.4342244580000028 0.237 -0.484 0.985 4.26 28.321 -34.313
1.4463108750000089 0.218 -0.451 0.98 6.802 25.87 -36.038
1.4584497910000067 0.2 -0.417 0.975 6.977 23.763 -35.832
1.4655248749999998 0.178 -0.392 0.972 9.038 21.435 -35.847
1.4778360000000106 0.186 -0.354 0.964 7.16 19.847 -34.084
1.4849608749999987 0.195 -0.368 0.961 6.435 19.366 -32.115
1.497059916000012 0.185 -0.406 0.966 6.763 18.496 -30.939
1.5041325830000005 0.19 -0.42 0.97 10.977 19.603 -30.26
1.516318916000003 0.18 -0.42 0.961 13.321 16.664 -30.305
1.5285295000000048 0.155 -0.424 0.971 17.931 13.252 -31.985
1.535870250000002 0.159 -0.383 0.947 17.718 11.061 -33.992
1.547807750000004 0.164 -0.344 0.931 17.947 11.092 -32.145
1.5547389580000015 0.147 -0.343 0.907 14.458 11.885 -31.74
1.5672447910000074 0.144 -0.339 0.916 9.71 12.076 -30.275
1.574282083 0.136 -0.362 0.922 7.84 11.985 -27.267
1.5865454999999997 0.132 -0.37 0.95 7.802 12.924 -24.389
1.598550208000006 0.123 -0.359 0.942 7.45 11.893 -20.687
1.6056885410000064 0.115 -0.356 0.954 5.183 12.809 -19.053
1.6181588330000096 0.115 -0.342 0.921 3.282 13.305 -17.84
1.6254354579999983 0.097 -0.356 0.934 6.0 14.45 -17.069
1.6374684580000007 0.099 -0.341 0.942 10.313 15.969 -14.443
1.6445078750000022 0.073 -0.346 0.931 17.969 12.985 -14.13
1.6566595000000035 0.073 -0.34 0.919 23.992 10.947 -14.115
1.6688269160000004 0.078 -0.329 0.925 27.939 7.641 -15.008
1.676106333000007 0.098 -0.307 0.957 24.901 8.405 -14.038
1.6881301660000076 0.097 -0.296 0.935 21.275 10.878 -10.0
1.6954426249999983 0.082 -0.297 0.926 16.366 16.099 -7.305
1.7074690830000065 0.073 -0.325 0.917 15.153 17.84 -4.489
1.7148017500000066 0.067 -0.343 0.923 17.786 17.397 -4.122
1.7268332910000055 0.08 -0.357 0.928 23.0 17.855 -2.397
1.7329386660000097 0.11 -0.357 0.936 25.992 18.595 -1.237
1.7462659159999987 0.127 -0.346 0.946 25.206 19.931 -0.405
1.7582198330000125 0.136 -0.313 0.918 21.153 22.71 0.748
1.765550833000006 0.101 -0.3 0.874 19.496 22.55 0.779
1.777709625 0.095 -0.283 0.868 21.458 19.901 0.351
1.7849441660000025 0.087 -0.274 0.847 25.412 18.107 0.252
1.7972075830000023 0.102 -0.274 0.841 28.466 16.382 0.351
1.8044325410000113 0.124 -0.255 0.838 30.275 14.55 0.832
1.816694541000004 0.126 -0.257 0.865 30.321 13.588 0.695
1.8239734580000118 0.141 -0.24 0.866 29.427 13.435 0.382
1.8362078330000031 0.15 -0.235 0.881 25.267 14.756 2.809
1.8486620000000045 0.137 -0.242 0.871 22.122 16.206 4.901
1.8556972500000057 0.135 -0.234 0.865 19.58 17.977 7.015
1.8682169160000086 0.145 -0.24 0.868 18.939 17.588 7.794
1.8752037500000114 0.144 -0.24 0.869 16.931 17.779 9.198
1.8876526660000081 0.136 -0.241 0.876 14.733 15.931 9.847
1.8948779580000092 0.128 -0.222 0.858 13.603 14.901 10.26
1.9072850410000086 0.115 -0.213 0.851 11.947 11.794 9.443
1.914360000000002 0.129 -0.191 0.845 12.824 8.595 8.588
1.9267400000000094 0.138 -0.204 0.877 13.107 7.305 8.0
1.934459375000003 0.172 -0.213 0.907 12.496 7.595 8.595
1.9466895830000084 0.186 -0.227 0.9 15.489 8.366 7.45
1.9542285410000062 0.192 -0.242 0.896 18.16 6.542 5.359
1.9664713330000012 0.203 -0.211 0.891 19.618 4.397 2.916
1.978699958000007 0.208 -0.198 0.869 16.832 4.542 2.267
1.9860180000000014 0.203 -0.207 0.855 13.13 3.908 1.695
1.998264208000009 0.214 -0.218 0.865 10.725 4.725 3.366
