Time AX AY AZ GX GY GZ
0.014599750000002132 0.148 -0.144 0.961 1.573 -2.115 -1.74
0.026772917000002394 0.159 -0.133 0.951 1.176 -2.695 -1.733
0.03922466699999916 0.161 -0.132 0.955 1.153 -2.366 -2.16
0.046216959000005886 0.161 -0.129 0.952 0.435 -1.756 -1.244
0.05871333400000367 0.155 -0.133 0.953 0.809 -1.305 -1.412
0.06599783400000092 0.156 -0.136 0.957 1.183 -0.695 -1.481
0.0783522500000089 0.169 -0.133 0.949 -0.252 0.42 -0.679
0.08551633400000469 0.159 -0.137 0.945 0.145 0.55 -0.725
0.09775583399999732 0.167 -0.139 0.948 1.756 -0.053 -1.557
0.10508479199999954 0.17 -0.132 0.954 1.237 -0.641 -1.847
0.11725629200000753 0.176 -0.128 0.956 0.198 -0.092 -2.511
0.12449691700000187 0.169 -0.129 0.957 -1.664 1.115 -2.084
0.13681691700000442 0.168 -0.133 0.949 -2.58 2.298 -1.374
0.14922775000000854 0.158 -0.14 0.952 -2.802 2.061 -0.931
0.15651308399999664 0.159 -0.155 0.955 -2.489 1.527 -1.305
0.16886454200000856 0.163 -0.15 0.962 -1.45 1.191 -1.634
0.17605029199999933 0.162 -0.137 0.962 -1.397 1.748 -2.519
0.18833762500000262 0.145 -0.115 0.957 -2.183 1.71 -3.092
0.19566020900001035 0.141 -0.1 0.957 -1.489 0.916 -4.344
0.20788366700000438 0.149 -0.102 0.97 -1.42 0.992 -5.618
0.21514237499999922 0.15 -0.109 0.969 -1.359 0.702 -6.748
0.22752016700000866 0.157 -0.107 0.956 -1.496 0.13 -8.336
0.23945208400000695 0.143 -0.103 0.991 -1.542 -1.092 -10.695
0.24678258400000175 0.137 -0.026 0.961 -7.718 -0.824 -14.611
0.25886800000000676 0.077 -0.059 0.992 -8.947 -2.023 -17.534
0.26624412500000005 0.054 -0.048 1.001 -8.863 0.015 -21.672
0.27812945899999875 0.04 -0.037 0.998 -11.397 2.84 -22.924
0.2851804590000029 -0.052 -0.113 1.0 -10.855 1.939 -23.809
0.29724158400000533 -0.111 -0.113 0.985 -6.832 -1.328 -24.176
0.3089874169999973 -0.194 -0.145 1.055 -2.626 -5.191 -21.084
0.3163103750000005 -0.228 -0.132 1.096 -1.221 -6.351 -20.313
0.32808941700000105 -0.258 -0.112 1.111 -2.069 -2.733 -13.076
0.3354122089999976 -0.324 -0.135 1.092 -1.87 1.031 -7.267
0.3476803340000032 -0.39 -0.118 1.031 -1.107 0.863 -1.351
0.35501779199999817 -0.445 -0.098 1.013 -1.618 -5.237 0.618
0.36700670900000887 -0.508 -0.113 1.027 -0.015 -12.771 3.107
0.3790357499999999 -0.525 -0.119 1.039 -1.0 -16.221 5.496
0.3860949999999974 -0.537 -0.13 1.079 -0.687 -19.473 8.053
0.398093541999998 -0.503 -0.133 1.062 -5.496 -13.015 13.099
0.4054343749999987 -0.493 -0.173 1.046 1.771 -8.664 24.802
0.4174476670000047 -0.437 -0.167 0.972 5.328 -1.183 35.405
0.4249513339999993 -0.416 -0.123 0.867 1.809 3.527 43.061
0.43707820900000627 -0.41 -0.089 0.828 -1.924 4.878 48.443
0.44901466700000014 -0.385 -0.059 0.765 -0.13 4.031 54.26
0.456601083999999 -0.317 -0.113 0.766 2.237 3.618 58.573
0.4685693750000013 -0.223 -0.168 0.787 6.145 5.115 60.588
0.47608145899999954 -0.137 -0.257 0.835 9.863 7.664 61.809
0.48812916699999676 -0.061 -0.323 0.91 17.802 9.282 63.435
0.49545575000000497 -0.026 -0.338 1.034 14.802 4.191 58.534
0.5077133340000017 0.02 -0.292 1.043 3.366 -5.336 50.443
0.5136412500000063 0.036 -0.241 1.005 -11.947 -8.015 45.344
0.5267679589999972 0.032 -0.198 0.884 -20.885 -5.26 44.168
0.5390356670000074 0.027 -0.194 0.772 -26.779 1.802 39.786
0.5463733750000017 0.028 -0.222 0.7 -26.916 4.481 36.511
0.558391125 0.03 -0.15 0.594 -26.427 7.45 32.687
0.565659917000005 -0.009 -0.053 0.459 -19.756 4.733 34.565
0.5776623750000027 -0.064 -0.084 0.335 -9.221 -7.191 36.244
0.5836373750000092 -0.083 -0.22 0.258 7.366 -30.427 30.061
0.5967507920000088 0.094 -0.308 0.323 29.038 -51.679 24.336
0.6088094589999997 0.39 -0.338 0.47 42.198 -51.42 29.115
0.6160585420000046 0.551 -0.378 0.602 29.435 -47.435 39.611
0.6281347090000082 0.643 -0.276 0.519 33.718 -56.183 33.038
0.6354287090000099 0.677 -0.135 0.377 31.901 -76.702 30.985
0.6472337920000086 0.681 -0.165 0.266 37.122 -102.908 23.74
0.6592202089999972 0.826 -0.095 0.115 21.878 -106.198 1.435
0.6665504590000069 0.902 -0.12 0.184 8.756 -106.046 -1.405
0.6786338750000027 0.989 -0.216 0.313 -11.237 -93.992 13.13
0.6856598340000062 1.052 -0.351 0.464 -21.374 -82.58 17.534
0.6976801670000015 1.082 -0.465 0.624 -25.649 -76.321 18.725
0.709461208999997 1.112 -0.513 0.693 -21.924 -71.122 20.794
0.7167962090000088 1.197 -0.5 0.837 -22.122 -58.435 25.916
0.7285612920000091 1.174 -0.604 1.005 -36.038 -32.702 30.115
0.7358945419999969 1.275 -0.395 0.993 -37.679 -15.191 29.084
0.7479063340000067 1.217 -0.349 0.871 -22.687 -6.496 35.221
0.7551615840000068 0.999 -0.375 0.864 1.13 -20.542 54.626
0.7672500420000006 1.045 -0.278 0.703 -6.252 -11.527 30.069
0.7790027500000036 1.029 -0.183 0.685 -26.275 -10.351 20.992
0.7863337920000077 0.969 -0.192 0.709 -49.496 -11.427 20.595
0.7981257920000076 0.917 -0.221 0.762 -63.649 -13.565 19.489
0.8055291670000031 0.899 -0.262 0.808 -71.947 -10.496 16.237
0.8174934999999977 0.914 -0.307 0.896 -84.336 -3.55 12.191
0.8294697919999976 0.851 -0.34 0.939 -89.542 3.725 6.359
0.8367773340000042 0.798 -0.354 0.974 -83.443 5.985 -0.611
0.8491268340000033 0.734 -0.375 0.986 -73.588 6.061 -5.305
0.8565324590000074 0.724 -0.352 1.012 -64.542 9.527 -4.115
0.868457583999998 0.722 -0.366 1.053 -61.046 15.145 -2.519
0.8755300420000083 0.716 -0.369 1.12 -59.237 20.145 -4.328
0.887528666999998 0.651 -0.346 1.124 -58.061 24.031 -5.725
0.8994662090000105 0.586 -0.324 1.07 -57.679 25.71 -9.702
0.9068892089999991 0.539 -0.308 1.025 -57.069 24.0 -12.718
0.9186580420000041 0.509 -0.324 1.046 -58.817 21.58 -16.305
0.9260116669999974 0.519 -0.36 1.119 -65.466 21.176 -17.061
0.9377879170000085 0.501 -0.415 1.211 -68.092 24.061 -17.672
0.9451175000000092 0.436 -0.439 1.258 -65.855 25.344 -22.13
0.956923584000009 0.412 -0.415 1.243 -65.84 26.595 -28.695
0.9688823750000068 0.282 -0.536 1.208 -60.71 20.924 -19.809
0.975824375000002 0.332 -0.353 1.07 -56.527 29.252 -30.313
0.9878925840000079 0.292 -0.39 1.03 -50.321 24.649 -31.611
0.9949675000000013 0.314 -0.431 1.081 -49.275 22.817 -38.573
1.006949375000005 0.299 -0.509 1.144 -47.092 18.427 -32.779
1.0190204999999963 0.275 -0.542 1.175 -33.847 21.55 -32.542
1.025743792 0.256 -0.572 1.135 -18.473 23.13 -30.176
1.0379244590000098 0.26 -0.539 1.104 -8.679 23.908 -30.267
1.044900124999998 0.237 -0.506 1.041 -2.977 19.29 -33.748
1.057220749999999 0.231 -0.52 1.044 -2.427 13.824 -35.733
1.0694846669999976 0.266 -0.512 1.088 -3.725 11.382 -36.611
1.0762018750000095 0.294 -0.51 1.107 -4.473 15.351 -36.611
1.0884660840000038 0.291 -0.499 1.071 -4.221 20.099 -35.443
1.0954800420000055 0.261 -0.481 1.003 -5.527 18.351 -36.313
1.1077136250000024 0.233 -0.492 0.976 -5.649 13.618 -37.298
1.1147490840000103 0.233 -0.507 1.002 -4.695 7.641 -38.237
1.1270142090000093 0.228 -0.481 0.968 -3.901 6.763 -37.695
1.13958375 0.222 -0.523 0.947 -6.405 6.496 -33.901
1.1465491670000034 0.24 -0.472 0.95 -1.611 8.489 -32.618
1.158788874999999 0.239 -0.497 0.944 1.695 9.481 -29.313
1.1658204590000025 0.254 -0.472 0.959 7.695 10.473 -26.718
1.1783138340000079 0.249 -0.471 0.955 16.519 9.725 -26.611
1.1856169170000044 0.242 -0.438 0.903 20.756 8.931 -24.527
1.1976442090000035 0.264 -0.414 0.93 22.115 8.305 -26.229
1.2049504170000063 0.274 -0.394 0.926 19.748 8.237 -23.412
1.2169656250000003 0.249 -0.383 0.891 20.42 8.076 -24.878
1.2292521250000021 0.242 -0.359 0.893 19.412 5.55 -23.656
1.2366246250000046 0.229 -0.368 0.878 20.702 2.443 -23.527
1.248576 0.229 -0.353 0.873 21.366 -1.069 -23.489
1.2554862500000041 0.226 -0.338 0.877 22.046 -1.466 -23.084
1.2677335839999984 0.249 -0.326 0.879 18.924 2.237 -19.061
1.2749732919999985 0.278 -0.332 0.899 12.908 6.565 -17.023
1.2872168749999986 0.257 -0.358 0.892 7.344 7.702 -15.412
1.299451750000003 0.24 -0.4 0.919 5.641 9.359 -14.489
1.3067534590000065 0.224 -0.416 0.891 1.878 15.947 -12.435
1.318792166999998 0.253 -0.421 0.925 3.305 17.733 -15.924
1.3260365840000077 0.232 -0.388 0.889 5.374 16.977 -12.282
1.3383547090000008 0.193 -0.401 0.865 21.84 8.626 -9.901
1.3454135000000065 0.221 -0.357 0.859 24.336 3.42 -10.26
1.3577646669999979 0.276 -0.322 0.873 24.405 1.115 -8.107
1.365191167000006 0.293 -0.317 0.882 19.237 1.931 -9.893
1.377186709 0.304 -0.313 0.887 12.275 4.55 -12.351
1.3894584170000002 0.311 -0.311 0.89 5.924 7.794 -15.084
1.3968004170000086 0.289 -0.333 0.904 0.221 13.015 -14.527
1.4088174999999978 0.255 -0.317 0.864 -4.931 17.588 -13.939
1.4161165419999975 0.22 -0.334 0.864 -1.672 16.168 -14.412
1.4281745420000078 0.214 -0.345 0.868 5.489 12.664 -14.74
1.435527209 0.235 -0.339 0.895 10.832 11.565 -14.55
1.4474803749999978 0.246 -0.336 0.896 16.084 14.29 -14.031
1.4595012090000097 0.243 -0.348 0.904 17.0 15.221 -13.565
1.466545209000003 0.231 -0.333 0.906 17.069 15.076 -13.794
1.4785760839999966 0.213 -0.303 0.885 16.817 13.466 -13.267
1.4858583750000065 0.201 -0.307 0.886 18.076 11.702 -12.229
1.4978823750000032 0.194 -0.303 0.897 20.359 10.275 -11.947
1.505176917 0.204 -0.279 0.889 18.29 8.42 -9.359
1.517433875000009 0.207 -0.307 0.934 17.656 6.687 -5.763
1.5233011250000033 0.221 -0.318 0.962 16.374 8.198 -4.099
1.5369717920000028 0.205 -0.334 0.974 13.679 6.641 -2.832
1.5492174590000047 0.223 -0.29 0.969 7.863 6.618 -1.725
1.5567473340000078 0.2 -0.331 0.975 8.206 4.015 -1.397
1.5688041249999998 0.207 -0.295 0.954 11.153 4.321 -2.496
1.576280834000002 0.204 -0.299 0.943 12.802 5.565 -1.748
1.5883330839999985 0.196 -0.289 0.949 10.595 3.038 -0.084
1.595802083999999 0.19 -0.269 0.95 5.092 1.053 1.244
1.6083608750000025 0.203 -0.252 0.942 1.237 1.282 2.71
1.6155746670000042 0.172 -0.259 0.901 -1.397 1.008 2.023
1.6280965420000086 0.16 -0.283 0.905 1.244 1.618 0.977
1.635753667000003 0.179 -0.274 0.887 4.397 1.84 2.802
1.6478691249999997 0.176 -0.279 0.885 8.214 1.71 4.42
1.6554313750000063 0.196 -0.287 0.909 11.084 1.901 3.901
1.6676504590000008 0.211 -0.284 0.925 8.366 3.695 -0.649
1.6749030000000005 0.207 -0.292 0.92 5.969 5.618 -2.733
1.6871911249999982 0.18 -0.298 0.892 8.687 7.504 -3.969
1.6994248339999984 0.166 -0.28 0.895 12.947 9.656 -0.802
1.7067773750000015 0.154 -0.278 0.883 19.55 8.924 -0.023
1.718992 0.162 -0.282 0.881 24.557 7.74 0.939
1.7265337090000088 0.17 -0.266 0.897 26.847 7.015 1.191
1.7387952500000097 0.192 -0.262 0.916 26.595 6.214 2.031
1.7463142090000048 0.198 -0.235 0.899 24.824 5.656 2.542
1.7585573340000025 0.19 -0.217 0.885 22.473 4.756 3.29
1.7657986669999985 0.192 -0.234 0.895 19.748 2.313 3.145
1.7780663340000018 0.215 -0.191 0.89 13.916 2.618 3.0
1.7856157089999982 0.191 -0.234 0.911 12.176 4.046 2.84
1.7978532500000028 0.214 -0.231 0.92 5.023 5.794 1.634
1.8053478750000096 0.176 -0.219 0.888 3.321 7.359 1.664
1.8178775000000087 0.153 -0.246 0.895 5.351 6.305 1.656
1.825364042000004 0.17 -0.233 0.891 8.176 3.954 0.053
1.8377405000000095 0.199 -0.234 0.893 9.076 5.351 0.74
1.8452020419999968 0.186 -0.255 0.896 11.733 5.824 1.687
1.857452084000002 0.206 -0.228 0.869 12.748 6.847 4.092
1.8633812500000033 0.19 -0.218 0.878 14.351 6.061 6.466
1.8770153749999992 0.198 -0.192 0.867 14.061 3.733 6.473
1.8894625840000003 0.231 -0.183 0.903 8.542 5.229 8.229
1.8969769589999999 0.228 -0.191 0.897 1.74 9.84 9.511
1.9090071250000022 0.217 -0.176 0.888 -1.336 12.947 10.481
1.9162673750000039 0.178 -0.182 0.848 0.542 13.061 11.435
1.9288318750000002 0.155 -0.184 0.833 7.947 9.191 8.939
1.9361371669999983 0.154 -0.191 0.838 14.992 5.527 5.847
1.9483163750000045 0.183 -0.204 0.855 19.183 2.153 4.153
1.955922166999997 0.206 -0.199 0.88 18.542 1.145 2.855
1.9681502500000079 0.218 -0.196 0.876 15.832 1.824 2.687
1.9756367089999998 0.219 -0.185 0.881 11.664 2.565 2.931
1.9878807919999986 0.21 -0.202 0.9 9.893 4.168 4.328
1.9953985840000001 0.201 -0.215 0.885 10.298 5.42 5.42
