Time AX AY AZ GX GY GZ
0.013699625000000992 0.091 -0.104 0.995 -1.046 0.221 -1.015
0.020168667000000084 0.099 -0.105 0.972 -2.786 -0.008 0.687
0.03247675000000072 0.082 -0.118 0.973 -3.221 -1.275 0.038
0.04464879200000027 0.077 -0.115 0.978 -2.008 -2.916 -1.153
0.051495584000001315 0.091 -0.12 0.994 -1.557 -4.229 -1.718
0.06406308400000071 0.082 -0.114 0.996 -2.908 -3.031 -1.282
0.0711402920000026 0.086 -0.125 0.997 -2.664 -1.962 -0.817
0.08327554200000264 0.083 -0.138 1.005 -1.496 -1.168 -0.748
0.09027970900000071 0.08 -0.13 0.981 0.496 -1.794 -2.382
0.10286245900000068 0.073 -0.13 0.993 1.496 -2.55 -3.489
0.11010225000000062 0.073 -0.119 0.977 3.55 -3.733 -4.626
0.12244650000000235 0.083 -0.113 0.98 4.679 -4.0 -5.298
0.12846533400000126 0.095 -0.127 0.996 3.305 -3.786 -4.168
0.14212670899999935 0.105 -0.116 0.989 2.748 -2.115 -2.985
0.15440804200000002 0.094 -0.123 0.987 2.137 -0.939 -1.496
0.16163883400000145 0.098 -0.126 0.963 3.809 -2.679 -1.0
0.17392670899999985 0.096 -0.109 0.974 4.221 -0.87 -1.634
0.18123691699999966 0.103 -0.105 0.977 2.511 -0.672 -1.397
0.19349891699999944 0.089 -0.098 0.961 2.374 0.275 -1.519
0.20099537500000153 0.088 -0.105 0.969 0.817 1.137 -1.74
0.21306462500000123 0.09 -0.094 0.976 -0.687 1.244 -1.519
0.22058716700000147 0.068 -0.11 0.986 -1.298 0.977 -1.267
0.2325634170000015 0.069 -0.131 0.987 -1.305 -0.45 -0.786
0.23843204199999946 0.055 -0.135 0.99 0.237 -2.26 -1.992
0.25213400000000163 0.072 -0.14 0.986 0.71 -2.099 -2.084
0.2643751250000008 0.075 -0.125 0.985 1.664 -1.756 -1.802
0.2717255420000022 0.074 -0.116 0.963 3.527 -2.45 -2.481
0.28388341700000197 0.081 -0.111 0.963 5.023 -3.901 -4.099
0.291246000000001 0.085 -0.117 0.961 7.229 -5.122 -5.183
0.3034795420000016 0.05 -0.163 1.019 3.611 -5.359 -0.519
0.3107647500000006 0.101 -0.099 0.969 9.603 -4.908 -3.626
0.32303629200000117 0.118 -0.095 0.99 7.58 -2.664 -2.947
0.3303527089999996 0.101 -0.09 1.004 5.885 -1.71 0.924
0.34261987500000046 0.13 -0.071 0.988 2.977 1.45 -0.817
0.35012283400000044 0.115 -0.088 0.97 -0.176 2.29 -0.458
0.36235079200000087 0.086 -0.112 0.98 -3.405 2.046 0.237
0.37461854200000033 0.083 -0.103 0.98 0.771 0.092 -1.954
0.3818939169999993 0.072 -0.103 0.983 0.168 0.053 -1.511
0.39413237500000164 0.081 -0.104 0.99 -0.305 0.191 -0.962
0.40146800000000127 0.084 -0.095 0.984 -1.924 0.519 -1.061
0.4136918750000014 0.08 -0.093 0.978 -2.733 0.84 -0.489
0.42096512500000216 0.057 -0.099 0.979 -1.687 0.344 -1.389
0.4332093340000007 0.051 -0.099 0.982 0.534 0.115 -2.42
0.4407686670000004 0.048 -0.104 0.973 2.008 -0.656 -3.855
0.4527940000000008 0.057 -0.097 0.977 3.817 -0.084 -4.84
0.4603277090000013 0.054 -0.093 0.984 2.954 1.939 -3.481
0.47254275000000234 0.044 -0.088 0.991 0.916 5.458 -1.748
0.48014733400000154 0.008 -0.089 0.996 0.634 9.031 0.634
0.49236774999999966 -0.045 -0.103 1.002 4.069 11.733 1.099
0.5043826250000016 -0.081 -0.113 1.032 6.084 14.107 3.053
0.5116487920000026 -0.145 -0.113 1.045 10.206 15.611 6.214
0.5239592920000007 -0.195 -0.139 1.036 13.405 15.985 6.939
0.5312609590000008 -0.242 -0.166 1.057 22.061 12.191 4.786
0.543240959000002 -0.278 -0.151 1.099 28.802 5.214 3.473
0.5507699170000002 -0.293 -0.132 1.124 30.847 0.695 1.458
0.5628193340000003 -0.322 -0.085 1.129 25.557 -2.489 3.542
0.5703910420000007 -0.368 0.003 0.954 9.947 1.58 2.939
0.5823574170000008 -0.386 0.01 1.081 15.718 -10.397 12.504
0.5943719999999999 -0.425 -0.016 1.094 10.611 -6.954 14.71
0.6016820840000001 -0.453 -0.047 1.076 12.26 -6.931 19.664
0.6134834590000011 -0.44 -0.036 1.064 11.489 -14.389 21.252
0.6207797500000005 -0.402 0.009 1.064 8.412 -19.328 20.489
0.6328225839999995 -0.403 0.001 1.06 -13.656 -23.542 23.595
0.6401118340000025 -0.426 0.021 0.986 -25.908 1.527 32.397
0.6518506670000015 -0.456 -0.016 1.045 -30.534 -12.389 41.153
0.6639375419999993 -0.525 -0.013 0.925 -30.145 -4.359 44.092
0.6709936250000013 -0.528 -0.078 0.927 -25.015 -8.366 50.366
0.683054459000001 -0.471 -0.056 0.894 -11.321 -8.901 49.947
0.6902143340000002 -0.408 -0.093 0.862 -3.496 -13.405 48.969
0.7021058750000009 -0.328 -0.144 0.893 5.603 -14.298 49.794
0.7141671249999995 -0.241 -0.155 0.862 12.244 -5.634 62.053
0.7214244170000015 -0.174 -0.188 0.838 28.794 5.008 67.763
0.7336985420000026 -0.083 -0.213 0.832 51.962 6.809 70.053
0.7410259170000018 0.052 -0.177 0.846 73.916 8.397 68.237
0.7532646249999999 0.191 -0.192 0.873 91.985 3.885 64.076
0.7605749589999995 0.361 -0.2 0.914 90.504 1.214 58.405
0.7728610000000025 0.481 -0.188 0.944 71.496 5.702 58.389
0.7800888750000006 0.537 -0.103 0.865 44.885 -0.069 53.176
0.7918735420000012 0.597 -0.088 0.887 9.374 -5.634 41.87
0.8041600839999994 0.673 -0.037 0.854 -21.435 -20.382 34.176
0.8112182919999995 0.681 -0.054 0.852 -65.038 -23.221 28.634
0.8232380419999998 0.585 -0.047 0.726 -99.931 -23.977 29.107
0.830347917000001 0.414 -0.146 0.66 -88.802 -26.954 34.267
0.8423640839999997 0.343 -0.26 0.63 -53.779 -19.702 40.061
0.8543632920000022 0.339 -0.306 0.615 -6.565 -12.427 42.595
0.8616609590000017 0.45 -0.263 0.649 25.611 -9.389 38.519
0.8736785420000004 0.61 -0.218 0.707 40.718 -6.954 33.374
0.880999292000002 0.672 -0.199 0.728 44.351 -7.336 29.878
0.8932805839999993 0.675 -0.186 0.768 48.748 -8.603 25.779
0.9003809999999994 0.672 -0.122 0.728 57.588 -12.336 20.893
0.9123367920000014 0.719 -0.059 0.747 59.977 -11.397 13.511
0.9245859170000017 0.786 -0.067 0.844 49.939 -4.275 7.527
0.9321374999999996 0.807 0.019 0.858 32.519 6.275 3.313
0.9444188750000002 0.766 0.062 0.917 21.168 13.198 5.466
0.9516617089999997 0.725 0.128 0.812 14.229 15.511 -1.649
0.9639589589999993 0.742 0.201 0.698 8.321 12.046 -17.16
0.9712297920000026 0.717 0.224 0.717 -5.565 2.992 -30.58
0.9835052090000005 0.658 0.171 0.783 -13.763 3.168 -40.802
0.9908003749999992 0.596 0.1 0.885 -23.901 3.802 -38.931
1.0026797920000021 0.505 0.004 0.95 -26.588 13.985 -40.16
1.0084352090000017 0.434 0.07 0.725 -37.519 14.153 -37.794
1.021634584000001 0.406 -0.066 1.061 -36.374 32.908 -27.618
1.0338136670000004 0.35 -0.094 1.051 -28.542 37.351 -16.489
1.0405136670000026 0.344 -0.048 1.087 -28.901 16.168 -8.122
1.052833500000002 0.256 -0.133 1.005 -34.267 14.298 -1.504
1.0598488340000003 0.243 -0.164 1.017 -51.374 6.084 -9.939
1.0720983749999995 0.219 -0.188 1.009 -61.153 0.443 -12.809
1.084412209 0.135 -0.258 0.919 -70.366 -8.473 -19.115
1.0910935839999993 0.118 -0.225 0.898 -78.992 -25.008 -22.763
1.1031174999999998 0.111 -0.222 0.881 -72.328 -41.939 -18.504
1.109906125000002 0.165 -0.168 0.811 -69.076 -49.084 -15.962
1.1221257500000021 0.254 -0.152 0.85 -73.504 -45.58 -20.634
1.134118375 0.205 -0.168 0.762 -76.55 -45.046 -15.763
1.1409620420000017 0.241 -0.137 0.741 -84.351 -49.939 -14.649
1.1529717089999991 0.234 -0.169 0.741 -74.924 -53.985 -13.649
1.1597240420000006 0.243 -0.212 0.742 -61.092 -55.351 -16.679
1.1719610839999994 0.278 -0.292 0.883 -52.718 -51.641 -13.748
1.183908584000001 0.302 -0.307 0.94 -35.473 -42.885 -8.878
1.1912049170000003 0.35 -0.263 0.985 -15.176 -33.504 -11.885
1.2030647499999993 0.432 -0.201 1.019 -5.595 -26.794 -16.069
1.2101034169999991 0.471 -0.177 1.087 -4.267 -18.626 -21.015
1.222139417000001 0.491 -0.167 1.158 -1.038 -12.008 -22.931
1.2341542499999996 0.487 -0.199 1.196 -10.046 -2.153 -25.969
1.2412335839999997 0.468 -0.198 1.242 -17.282 7.855 -27.237
1.253269459000002 0.439 -0.176 1.215 -21.687 14.046 -28.13
1.2603877919999995 0.41 -0.177 1.194 -24.168 17.298 -32.603
1.272410959000002 0.386 -0.199 1.194 -26.145 19.13 -39.237
1.2843817500000014 0.359 -0.256 1.263 -25.458 20.58 -41.298
1.291315375 0.344 -0.257 1.301 -27.985 21.115 -40.328
1.3035269169999992 0.339 -0.282 1.329 -26.084 29.0 -42.252
1.3105843750000012 0.338 -0.286 1.286 -26.687 31.328 -44.221
1.322602917000001 0.31 -0.282 1.238 -29.626 29.87 -43.969
1.3343651250000015 0.251 -0.318 1.198 -30.733 26.122 -43.534
1.341780625000002 0.193 -0.346 1.192 -32.305 20.992 -42.947
1.353487125000001 0.142 -0.345 1.189 -33.137 17.832 -38.489
1.3607917090000008 0.124 -0.337 1.179 -26.046 18.748 -34.191
1.3725520000000024 0.077 -0.332 1.201 -13.45 19.725 -33.679
1.384586875 0.122 -0.276 1.156 -0.947 21.42 -34.672
1.391880750000002 0.149 -0.283 1.187 4.893 20.443 -40.16
1.4040205420000014 0.15 -0.269 1.158 10.939 13.336 -44.58
1.411422250000001 0.124 -0.287 1.132 13.954 8.916 -46.58
1.4235936670000022 0.087 -0.279 1.135 19.137 4.55 -45.435
1.4305807500000007 0.078 -0.279 1.182 18.16 -1.198 -43.397
1.4428335840000024 0.094 -0.247 1.153 21.244 0.313 -42.015
1.4501587919999999 0.113 -0.27 1.228 19.115 5.664 -37.519
1.4621629170000006 0.132 -0.228 1.175 9.282 12.45 -32.496
1.4741424169999995 0.11 -0.22 1.145 7.374 13.351 -30.779
1.4814124170000014 0.12 -0.21 1.144 6.168 12.756 -34.969
1.4936944590000003 0.095 -0.2 1.135 2.023 10.802 -38.794
1.500976542 0.042 -0.216 1.09 -3.679 7.595 -38.718
1.5130100840000011 0.021 -0.243 1.069 -4.038 6.244 -36.45
1.520381125 -0.029 -0.264 1.041 2.748 5.214 -35.87
1.5323589589999997 -0.015 -0.287 1.054 11.466 4.672 -35.733
1.5443900839999998 0.01 -0.286 1.094 13.122 6.015 -31.939
1.5517044589999998 0.01 -0.27 1.102 15.069 9.885 -26.588
1.5636869590000018 0.008 -0.211 1.052 12.748 13.015 -24.359
1.5710022499999994 -0.018 -0.197 1.018 10.084 14.977 -22.534
1.5830327090000011 -0.052 -0.212 1.002 8.511 15.962 -20.863
1.5901016670000025 -0.081 -0.226 1.016 7.885 16.328 -18.107
1.6022679170000025 -0.087 -0.248 1.027 8.382 16.542 -16.305
1.6142483339999991 -0.105 -0.255 1.038 12.901 15.603 -14.221
1.6213017090000008 -0.097 -0.241 1.036 18.771 14.313 -14.656
1.633329917000001 -0.077 -0.205 1.025 20.412 13.115 -16.092
1.6403986249999996 -0.054 -0.174 0.999 17.29 10.55 -17.496
1.652402875 -0.06 -0.175 0.992 11.618 7.702 -17.328
1.6647021250000016 -0.083 -0.213 0.996 7.626 8.061 -14.542
1.671997084000001 -0.109 -0.221 0.97 9.45 7.0 -10.046
1.683994042000002 -0.11 -0.23 0.96 11.382 7.061 -6.847
1.6913720000000012 -0.088 -0.206 0.968 13.992 8.053 -3.366
1.703614709 -0.09 -0.219 0.949 17.947 9.763 0.534
1.710883625000001 -0.073 -0.216 0.94 19.328 10.229 0.473
1.7228680420000018 -0.062 -0.211 0.934 23.985 11.046 1.832
1.7301962090000025 -0.041 -0.18 0.89 24.916 8.405 1.214
1.7424626670000016 -0.038 -0.157 0.865 23.26 6.053 0.527
1.7546847499999991 -0.026 -0.154 0.874 21.786 4.954 3.13
1.7620003339999997 -0.042 -0.159 0.876 20.817 6.74 6.695
1.7743059589999994 -0.029 -0.168 0.876 20.656 8.29 9.733
1.7815653749999996 -0.023 -0.173 0.876 20.634 9.664 12.443
1.7935718750000014 0.009 -0.161 0.896 20.84 10.878 13.435
1.8008593750000017 0.012 -0.153 0.877 19.649 10.832 14.626
1.8131245000000007 0.023 -0.119 0.858 19.603 9.427 14.611
1.8204343750000014 0.024 -0.101 0.832 19.71 7.061 12.29
1.832702459 0.051 -0.103 0.846 18.122 5.779 9.198
1.8402118750000014 0.084 -0.093 0.858 15.832 7.183 9.557
1.852106667000001 0.08 -0.09 0.831 13.878 7.45 10.183
1.864362959000001 0.058 -0.11 0.814 11.809 5.313 9.137
1.871894000000001 0.085 -0.125 0.833 12.038 3.611 9.908
1.8841362090000011 0.078 -0.162 0.869 11.305 3.008 11.702
1.8914322500000011 0.09 -0.116 0.857 12.511 3.878 11.267
1.9036975839999997 0.114 -0.099 0.866 11.557 4.695 10.763
1.9109305840000026 0.137 -0.085 0.86 9.26 6.511 10.443
1.9235374170000021 0.138 -0.069 0.866 5.786 7.099 9.336
1.9309896250000023 0.136 -0.062 0.86 3.053 5.145 7.16
1.9432436670000008 0.13 -0.055 0.859 0.229 1.687 4.924
1.9505613339999996 0.135 -0.047 0.862 -2.748 -0.718 4.16
1.9627974170000009 0.118 -0.07 0.865 -5.015 -2.634 4.954
1.9700641250000004 0.123 -0.088 0.896 -6.473 -3.366 7.702
1.9823860420000017 0.122 -0.098 0.904 -7.779 -2.473 10.389
1.9943490419999996 0.123 -0.092 0.882 -7.511 -3.634 10.832
2.0016186670000025 0.127 -0.076 0.886 -7.427 -5.954 8.427
