Time AX AY AZ GX GY GZ
0.01983591599999812 -0.24 0.086 0.956 -1.985 5.58 -0.412
0.026761790999998425 -0.251 0.083 0.956 -2.229 6.824 -0.427
0.03894145799999649 -0.262 0.089 0.958 -2.695 7.244 0.771
0.046345207999998195 -0.271 0.086 0.955 -2.649 7.061 0.809
0.058600124999998116 -0.282 0.074 0.964 -3.046 3.733 -0.137
0.06560429099999965 -0.28 0.079 0.98 -3.313 -0.611 0.099
0.07788616599999898 -0.269 0.077 0.984 -3.511 -1.344 0.718
0.0902200829999984 -0.272 0.087 0.959 -4.534 -2.359 2.191
0.09754291599999476 -0.281 0.082 0.961 -6.267 -4.206 2.282
0.10964024999999822 -0.269 0.077 0.969 -7.031 -7.443 2.58
0.11688658299999588 -0.262 0.062 0.978 -6.885 -14.137 3.634
0.1288738330000001 -0.266 0.045 0.998 -6.313 -16.718 4.962
0.13619841599999916 -0.264 0.039 1.003 -5.87 -9.885 5.878
0.14817695799999342 -0.234 0.035 0.994 -5.931 -4.145 3.29
0.1601699999999937 -0.241 0.027 1.012 -4.702 -10.611 3.756
0.1676308749999933 -0.232 0.023 0.996 -5.344 -17.573 5.634
0.1795470409999993 -0.223 0.034 0.98 -4.885 -14.321 6.015
0.18662566599999764 -0.226 0.042 0.962 -4.588 -10.573 7.336
0.19888445799999488 -0.22 0.051 0.943 -5.672 -6.321 8.359
0.20617012499999987 -0.213 0.07 0.907 -6.122 -3.489 8.634
0.21817920799999513 -0.213 0.074 0.904 -6.557 -5.275 9.489
0.23016979099999446 -0.193 0.08 0.882 -6.901 -4.031 8.626
0.23749670799999478 -0.185 0.078 0.897 -6.664 -5.298 7.382
0.24973391599999673 -0.156 0.068 0.919 -6.122 -5.74 7.878
0.25706591599999484 -0.132 0.059 0.936 -5.282 -3.244 6.427
0.2690584579999964 -0.121 0.05 0.96 -4.611 -1.542 6.489
0.27640983299999533 -0.102 0.039 0.973 -3.573 3.557 4.153
0.2886644579999995 -0.106 0.042 0.981 -3.015 6.58 1.344
0.2959347909999934 -0.121 0.042 0.978 -3.0 6.878 0.893
0.30821724999999844 -0.118 0.044 0.978 -2.321 9.542 0.153
0.3201483329999988 -0.128 0.041 0.962 -1.504 12.298 2.954
0.3274894579999952 -0.111 0.082 0.935 -6.053 19.122 6.244
0.33948870799999753 -0.072 0.056 0.95 -2.771 25.023 -0.214
0.3468493749999979 -0.032 0.055 0.975 -1.763 28.427 -3.031
0.35886174999999554 -0.026 0.043 1.019 -1.13 31.519 -7.847
0.36615745799999644 -0.048 0.044 1.046 1.947 30.809 -9.847
0.3781655409999942 -0.108 0.047 1.103 2.557 46.321 -12.603
0.390201832999999 -0.117 0.095 1.073 12.939 49.427 -13.344
0.3972849579999931 -0.142 0.08 1.04 7.901 45.656 -16.74
0.4092764579999937 -0.169 0.118 1.057 9.061 43.382 -15.244
0.41660308299999826 -0.191 0.109 1.048 10.725 50.672 -18.038
0.4286186249999986 -0.238 0.135 1.038 9.382 52.733 -22.847
0.4357187499999995 -0.286 0.164 1.078 9.107 48.664 -23.29
0.4477142079999936 -0.323 0.153 1.119 8.863 37.977 -24.435
0.4598417909999952 -0.334 0.168 1.149 9.405 38.885 -27.405
0.4668769579999932 -0.384 0.152 1.14 4.687 34.145 -28.916
0.479027207999998 -0.444 0.156 1.137 3.58 35.275 -26.893
0.4862747909999996 -0.462 0.143 1.111 1.443 17.756 -22.786
0.4982140829999935 -0.513 0.174 1.12 -0.023 -10.145 -24.863
0.510019290999999 -0.564 0.137 1.104 -3.099 -26.183 -22.015
0.5171080829999966 -0.593 0.139 1.127 -6.977 -29.435 -15.924
0.5288496249999994 -0.621 0.113 1.118 -11.16 -29.763 -11.122
0.5359575829999983 -0.641 0.094 1.095 -18.374 -32.725 -5.985
0.5480336659999949 -0.671 0.088 1.074 -23.206 -34.504 0.435
0.5599872909999988 -0.673 0.065 1.038 -29.473 -39.672 0.649
0.5670217079999986 -0.684 0.021 1.058 -30.977 -37.13 4.824
0.5788389579999986 -0.668 0.018 1.059 -29.771 -27.183 11.069
0.586017708 -0.662 -0.046 1.049 -23.053 -16.321 14.626
0.597728999999994 -0.627 -0.066 1.025 -25.443 -17.267 15.153
0.6096216249999955 -0.617 -0.102 1.041 -22.252 -21.878 21.855
0.6166407079999985 -0.579 -0.19 0.996 -12.443 -18.237 38.328
0.6287152079999956 -0.574 -0.083 0.971 4.405 -5.74 37.947
0.6356998749999931 -0.587 -0.056 0.909 16.649 2.511 41.893
0.6477274999999949 -0.566 -0.057 0.874 22.237 9.122 45.855
0.6597178749999983 -0.551 -0.027 0.834 25.305 9.435 44.489
0.6671768749999956 -0.546 -0.034 0.788 23.603 3.924 48.191
0.6791107909999994 -0.5 -0.018 0.747 19.794 0.496 51.092
0.6861319579999972 -0.495 -0.037 0.732 17.878 -6.313 53.634
0.6981632499999932 -0.453 -0.036 0.695 15.649 -11.534 56.977
0.7100249999999946 -0.429 -0.041 0.658 14.489 -14.107 56.679
0.7170451659999983 -0.407 -0.053 0.649 12.145 -17.939 62.168
0.7290719999999951 -0.367 -0.068 0.582 8.252 -13.275 64.053
0.7361140829999968 -0.318 -0.051 0.601 6.168 -8.321 65.214
0.748138499999996 -0.29 -0.07 0.539 2.58 -5.527 66.237
0.7601594159999934 -0.253 -0.076 0.512 -2.634 -4.863 67.0
0.7672716659999992 -0.196 -0.094 0.49 -6.206 -7.435 63.374
0.7790454999999952 -0.151 -0.113 0.532 -10.374 -14.153 60.519
0.7861509999999967 -0.076 -0.118 0.556 -15.321 -16.076 63.511
0.7979423329999946 -0.022 -0.116 0.592 -17.969 -12.198 60.435
0.809971915999995 0.024 -0.099 0.615 -19.55 -6.321 56.649
0.8170403749999977 0.045 -0.087 0.627 -21.901 -0.458 53.0
0.8290943329999934 0.061 -0.08 0.649 -24.908 3.214 48.595
0.8363894999999957 0.119 -0.073 0.677 -27.794 5.794 43.336
0.8484084159999981 0.146 -0.061 0.712 -29.435 7.802 37.832
0.8601853749999933 0.194 -0.045 0.798 -28.496 11.718 35.702
0.867485374999994 0.211 -0.041 0.836 -25.023 22.511 34.008
0.8792506659999972 0.201 -0.011 0.862 -25.924 35.954 29.313
0.8863142499999981 0.178 -0.008 0.887 -30.305 39.55 22.168
0.8981697499999939 0.173 -0.001 0.929 -35.969 29.779 18.489
0.9057706659999951 0.193 0.017 0.947 -38.298 19.45 15.924
0.917481415999994 0.22 0.029 0.983 -38.656 15.031 8.969
0.9298879579999948 0.24 0.046 1.003 -36.122 17.557 1.878
0.9367637079999938 0.243 0.052 1.036 -32.359 24.382 -5.733
0.9489731249999949 0.22 0.069 1.054 -29.321 29.603 -10.527
0.9565008749999961 0.201 0.048 1.094 -28.008 35.168 -7.847
0.9681765409999983 0.178 0.067 1.149 -23.481 42.672 -19.641
0.9801764999999989 0.159 0.055 1.172 -21.26 45.611 -25.55
0.9872995829999951 0.109 0.052 1.192 -16.878 47.359 -33.489
0.9994600829999953 0.067 0.061 1.203 -12.634 42.58 -40.229
1.0062997499999966 0.003 0.083 1.217 -10.939 36.237 -44.092
1.0182206249999979 -0.024 0.077 1.189 -11.0 34.389 -51.282
1.0301730409999976 -0.066 0.079 1.185 -11.962 41.626 -55.489
1.036881375 -0.108 0.066 1.192 -7.137 65.534 -55.71
1.0492340409999983 -0.16 0.063 1.206 11.351 82.679 -54.565
1.0559565409999934 -0.203 0.048 1.23 21.939 72.145 -49.481
1.0681622079999968 -0.282 0.069 1.223 32.023 66.725 -54.992
1.0737610829999937 -0.355 0.075 1.198 31.076 82.015 -53.427
1.0871899999999997 -0.393 0.081 1.175 39.824 112.221 -53.908
1.099171124999998 -0.414 0.077 1.135 56.908 146.893 -48.466
1.106012457999995 -0.491 0.177 1.094 76.061 131.832 -46.458
1.1179647079999953 -0.556 0.183 1.084 95.885 108.641 -48.198
1.1301595409999976 -0.631 0.143 1.036 78.977 74.733 -53.427
1.1370090829999953 -0.676 0.176 1.063 59.573 47.527 -57.115
1.149369790999998 -0.718 0.163 1.03 37.015 20.412 -54.794
1.1562882079999994 -0.747 0.155 0.982 25.679 8.779 -53.221
1.168553249999995 -0.767 0.154 0.95 20.466 2.305 -51.466
1.1753362909999936 -0.729 0.151 0.929 17.13 -5.145 -44.29
1.1876574579999968 -0.703 0.126 0.951 14.481 -8.053 -38.58
1.1995579579999998 -0.695 0.123 0.912 13.832 -11.145 -42.237
1.2066310829999978 -0.738 0.101 0.902 14.718 -18.191 -46.015
1.218420666 -0.734 0.052 0.891 12.076 -32.947 -45.305
1.2257723749999982 -0.723 0.044 0.885 8.122 -33.832 -43.359
1.237509290999995 -0.742 -0.01 0.839 2.893 -27.718 -36.603
1.2493273329999965 -0.723 -0.0 0.836 -3.023 -34.489 -25.359
1.2564356659999945 -0.725 -0.021 0.816 -5.603 -38.802 -15.237
1.2681369579999995 -0.664 -0.028 0.795 -8.595 -34.634 -2.305
1.2801883749999945 -0.585 -0.038 0.742 -2.115 -31.832 1.389
1.2873391249999955 -0.557 -0.024 0.771 -6.382 -12.344 3.855
1.299311374999995 -0.535 -0.051 0.693 2.885 -23.565 -5.962
1.306387749999999 -0.536 -0.047 0.753 0.405 -79.0 -3.649
1.3181848329999966 -0.528 -0.096 0.768 -0.809 -91.786 -8.214
1.3301901249999943 -0.544 -0.146 0.746 2.534 -70.588 4.115
1.337518082999999 -0.489 -0.123 0.749 8.779 -56.084 11.611
1.3493038749999968 -0.483 -0.097 0.719 8.847 -45.481 11.847
1.3566021249999949 -0.474 -0.093 0.703 9.763 -39.473 12.397
1.3683878749999963 -0.416 -0.09 0.722 8.496 -38.397 15.603
1.3757526659999968 -0.397 -0.069 0.694 8.015 -27.954 17.374
1.3874728329999968 -0.362 -0.041 0.662 7.206 -15.397 18.969
1.3995008329999976 -0.371 -0.04 0.682 6.069 -17.779 12.84
1.4068417499999981 -0.366 -0.048 0.763 6.489 -33.198 8.649
1.4188600829999984 -0.357 -0.035 0.806 4.573 -48.542 7.046
1.4259041249999953 -0.368 -0.056 0.835 1.313 -54.344 8.473
1.4379511249999979 -0.375 -0.034 0.844 -1.672 -48.885 11.534
1.449761415999994 -0.354 -0.031 0.829 -5.954 -35.832 9.74
1.4570724999999953 -0.34 -0.018 0.86 -7.87 -25.511 7.901
1.4691892499999994 -0.308 0.008 0.891 -8.588 -18.672 7.664
1.476404499999994 -0.289 0.024 0.879 -7.847 -9.634 4.794
1.4884059159999978 -0.286 0.026 0.917 -6.252 -7.954 0.733
1.494303207999998 -0.265 0.024 0.929 -5.26 -14.229 -3.435
1.5075212909999962 -0.29 0.027 0.971 -5.588 -21.29 -6.244
1.5192901249999977 -0.289 -0.005 0.981 -1.763 -20.779 -13.275
1.5263456249999976 -0.293 0.026 0.947 -5.969 -13.863 -8.435
1.5384039999999999 -0.304 0.044 0.952 -9.565 -3.153 -6.145
1.545712249999994 -0.293 0.053 0.926 -10.718 8.389 -5.511
1.5577395409999966 -0.277 0.054 0.939 -11.779 16.0 -6.137
1.5694856659999985 -0.289 0.055 0.929 -12.298 15.008 -6.42
1.5766419159999998 -0.281 0.051 0.95 -9.237 11.305 -13.29
1.5888091659999972 -0.285 0.01 0.972 -8.947 6.893 -8.496
1.5961279579999967 -0.292 0.013 0.978 -7.427 6.634 -7.237
1.6082774999999998 -0.303 0.015 0.975 -4.87 12.687 -6.718
1.6202032499999959 -0.321 0.023 0.959 -4.198 19.176 -5.756
1.6275406659999945 -0.362 0.06 1.003 -7.206 31.908 -7.008
1.6395315409999967 -0.336 0.025 0.964 -0.504 28.542 -4.405
1.6468736249999978 -0.369 0.019 0.954 4.969 23.748 -3.466
1.6588871249999997 -0.383 0.018 0.977 4.595 22.435 -7.863
1.6659358749999953 -0.401 -0.008 0.964 11.405 22.305 -3.55
1.6781549159999969 -0.401 0.006 0.979 11.244 23.107 0.595
1.6902109579999944 -0.409 -0.001 0.965 10.389 30.573 2.183
1.6975045409999936 -0.397 0.007 0.964 12.229 29.282 2.473
1.7094943749999985 -0.368 0.016 0.951 8.756 19.405 4.137
1.7170604159999954 -0.374 0.022 0.93 5.237 7.969 3.771
1.729267582999995 -0.36 0.026 0.93 2.145 -2.023 2.733
1.736604749999998 -0.359 0.028 0.941 -0.046 -3.252 2.16
1.748617749999994 -0.362 0.032 0.941 -2.977 1.328 1.87
1.756208749999999 -0.364 0.03 0.928 -1.595 2.779 3.634
1.768160624999993 -0.343 0.032 0.918 -0.405 -4.153 3.969
1.7801575409999941 -0.327 0.031 0.946 -1.718 -7.473 3.176
1.7877097499999977 -0.327 0.032 0.957 0.275 -7.115 2.412
1.799734457999996 -0.322 0.033 0.961 0.267 -7.84 2.244
1.8072989159999935 -0.311 0.033 0.952 1.855 -7.45 0.748
1.8193340409999976 -0.323 0.041 0.943 1.046 -10.244 -0.092
1.8266304999999932 -0.323 0.039 0.934 0.168 -13.046 0.908
1.8386117909999982 -0.322 0.046 0.92 0.015 -12.031 -0.13
1.8456972909999934 -0.33 0.047 0.927 -1.061 -12.893 0.145
1.857734165999993 -0.334 0.023 0.924 -1.962 -16.496 1.489
1.8696974999999938 -0.314 0.031 0.927 -1.519 -12.863 0.336
1.8770383329999945 -0.331 0.02 0.935 -0.687 -8.695 -0.206
1.8890232909999938 -0.324 0.027 0.916 -0.42 -7.786 -0.481
1.896443957999999 -0.331 0.02 0.931 -0.42 -5.252 -1.053
1.9083973749999998 -0.323 0.033 0.928 -0.198 -3.214 -1.687
1.9144237499999974 -0.326 0.027 0.923 -0.229 -2.916 -1.649
1.927502582999999 -0.329 0.029 0.943 -0.252 -5.824 -1.206
1.939759040999995 -0.334 0.033 0.937 -0.305 -6.389 0.595
1.9467868749999937 -0.339 0.033 0.914 -0.504 -5.42 -0.084
1.9590614999999971 -0.335 0.027 0.913 -0.687 -4.427 0.985
1.9663482499999958 -0.332 0.027 0.927 -0.221 -2.328 1.595
1.978379665999995 -0.335 0.031 0.933 0.046 -1.473 1.336
1.9856840829999953 -0.326 0.042 0.924 -0.13 -2.511 0.84
1.9979381249999975 -0.332 0.027 0.941 0.015 -2.55 0.58
