Time AX AY AZ GX GY GZ
0.014570792000000665 -0.05 -0.432 0.889 1.389 -1.374 1.198
0.026588541999984727 -0.057 -0.419 0.883 0.099 1.802 -0.481
0.03871904199999676 -0.055 -0.437 0.89 -2.405 -0.206 -0.076
0.04567512500000248 -0.05 -0.437 0.893 -2.534 0.198 0.023
0.057843542000000525 -0.057 -0.446 0.891 -5.298 0.618 0.038
0.06523595799998816 -0.059 -0.448 0.887 -5.282 1.611 0.45
0.07749412499998698 -0.062 -0.457 0.891 -7.053 0.641 1.351
0.08463474999999221 -0.063 -0.452 0.876 -10.061 1.359 1.267
0.0966294170000026 -0.067 -0.453 0.889 -13.458 1.664 1.763
0.10857416700000044 -0.082 -0.464 0.875 -15.145 1.626 2.718
0.11598320799998874 -0.073 -0.453 0.866 -19.038 1.221 3.519
0.1280177920000085 -0.076 -0.449 0.869 -21.695 2.038 3.145
0.13529787499999202 -0.079 -0.434 0.867 -25.229 1.855 2.702
0.14729095799998504 -0.086 -0.448 0.875 -25.504 2.344 1.977
0.1543724169999905 -0.096 -0.456 0.876 -23.939 1.824 2.038
0.1663744169999859 -0.099 -0.464 0.869 -20.115 -0.252 2.099
0.17843099999998913 -0.11 -0.462 0.856 -16.229 -1.13 1.519
0.18548091700000668 -0.11 -0.476 0.867 -11.962 -2.443 0.534
0.19747829199999956 -0.085 -0.48 0.871 -3.664 -1.74 0.405
0.20483183299998586 -0.104 -0.457 0.84 6.565 -1.649 -1.924
0.21663783299999295 -0.105 -0.438 0.842 10.16 -3.527 -5.427
0.2287068750000003 -0.085 -0.452 0.845 12.695 -3.534 -7.16
0.23574712499998896 -0.101 -0.449 0.855 11.763 -4.015 -7.641
0.24778295799998773 -0.114 -0.443 0.837 8.74 -4.0 -8.344
0.25516375000000835 -0.098 -0.437 0.829 1.214 -4.985 -7.214
0.26712662500000306 -0.112 -0.44 0.823 -4.427 -4.45 -6.29
0.27433675000000335 -0.137 -0.438 0.808 -8.679 -5.122 -4.557
0.2861519999999871 -0.145 -0.431 0.792 -15.031 -7.634 -5.282
0.29806229199999734 -0.138 -0.439 0.803 -10.962 -7.985 -5.389
0.3049749999999847 -0.125 -0.409 0.804 -10.756 -12.275 -6.74
0.3166742079999949 -0.097 -0.397 0.81 -5.534 -13.198 -10.023
0.3286506670000051 -0.066 -0.382 0.82 -3.092 -15.771 -12.374
0.335595541999993 -0.025 -0.365 0.832 -4.298 -17.107 -15.099
0.34740183299999217 0.018 -0.355 0.889 -4.344 -15.595 -17.351
0.3544299170000045 0.052 -0.365 0.914 -3.748 -14.87 -19.359
0.36648133299999586 0.043 -0.379 0.931 -2.771 -11.405 -20.931
0.3783102079999878 0.047 -0.43 0.96 -2.504 -9.435 -21.931
0.385634500000009 0.059 -0.451 0.977 -0.305 -7.557 -15.916
0.39728349999998613 -0.0 -0.496 1.023 5.725 -5.351 -15.748
0.40460229199999276 -0.004 -0.549 1.019 8.359 -6.046 -17.71
0.4163915419999853 0.013 -0.589 1.056 11.397 -4.893 -17.053
0.4284174579999842 0.019 -0.592 1.094 10.626 -2.916 -17.641
0.43582258300000376 0.029 -0.586 1.113 5.298 0.809 -15.794
0.44790933299998414 0.002 -0.593 1.134 -1.313 3.885 -17.55
0.45497208300000125 -0.014 -0.564 1.122 -9.679 7.267 -13.282
0.4666497080000056 -0.028 -0.542 1.123 -14.321 10.718 -14.084
0.4784498749999955 -0.09 -0.598 1.114 -13.916 13.229 -16.595
0.4854945829999906 -0.112 -0.589 1.099 -13.321 15.489 -12.947
0.49732608299999015 -0.125 -0.614 1.09 -6.695 17.679 -12.794
0.5044261669999912 -0.189 -0.673 1.057 -1.443 17.0 -11.969
0.5164604999999938 -0.199 -0.692 1.04 3.076 15.405 -6.313
0.5284107500000061 -0.24 -0.721 0.998 7.275 11.649 -5.092
0.5357711670000072 -0.246 -0.711 0.978 7.481 8.038 -2.672
0.5480112079999913 -0.26 -0.719 0.987 11.924 6.702 0.855
0.5553034170000046 -0.256 -0.69 0.968 12.595 4.145 5.855
0.5673319999999933 -0.252 -0.686 0.961 16.122 3.183 10.176
0.5744027920000008 -0.265 -0.687 0.931 18.412 2.313 13.87
0.5864006249999818 -0.257 -0.674 0.91 22.397 1.008 18.366
0.5984392499999842 -0.261 -0.66 0.879 25.42 -0.504 21.023
0.6055026669999961 -0.255 -0.649 0.865 28.595 -1.992 24.573
0.6175726250000082 -0.264 -0.626 0.873 30.015 -4.031 27.45
0.6245889580000039 -0.272 -0.594 0.871 31.863 -5.053 30.115
0.6366227080000044 -0.257 -0.59 0.866 30.443 -7.038 34.588
0.6486555829999929 -0.256 -0.587 0.853 34.374 -7.069 38.0
0.6557291249999935 -0.246 -0.586 0.833 35.237 -9.595 42.511
0.6674487500000055 -0.23 -0.56 0.806 37.71 -10.656 45.45
0.6746946669999829 -0.213 -0.558 0.78 41.0 -12.55 48.427
0.6866685829999994 -0.182 -0.515 0.761 42.702 -15.191 50.947
0.6983967500000006 -0.153 -0.477 0.742 43.702 -16.725 51.931
0.7055163329999914 -0.119 -0.432 0.719 42.687 -18.237 52.794
0.7172791250000046 -0.081 -0.398 0.693 40.237 -19.588 55.664
0.7244036250000079 -0.067 -0.358 0.661 34.931 -21.359 56.183
0.7364642919999937 -0.031 -0.32 0.661 28.885 -21.969 57.313
0.7482404170000052 -0.005 -0.29 0.657 24.008 -22.115 57.16
0.755266000000006 0.018 -0.277 0.63 21.107 -22.504 56.13
0.7673238749999882 0.043 -0.288 0.626 19.725 -23.588 57.603
0.7744419579999828 0.028 -0.293 0.607 17.405 -25.504 56.847
0.7864307920000044 0.042 -0.272 0.595 16.763 -27.931 55.282
0.7984430829999951 0.06 -0.284 0.62 17.053 -25.405 52.565
0.8054722500000082 0.116 -0.241 0.621 16.695 -28.321 51.573
0.8175851249999937 0.135 -0.216 0.629 12.282 -27.534 51.031
0.8246671670000012 0.137 -0.207 0.63 7.74 -24.901 48.656
0.8366039579999835 0.154 -0.177 0.638 2.542 -23.534 47.618
0.8486595829999999 0.175 -0.174 0.66 -3.427 -22.901 46.534
0.855713417000004 0.182 -0.162 0.659 -8.145 -20.863 45.832
0.8677922079999973 0.179 -0.164 0.675 -11.588 -20.061 43.061
0.8748731249999935 0.187 -0.177 0.698 -14.053 -19.313 42.504
0.8866292499999986 0.164 -0.189 0.69 -16.489 -20.053 38.473
0.8983826669999928 0.198 -0.178 0.735 -18.527 -19.55 34.84
0.9056197919999818 0.206 -0.179 0.732 -24.962 -18.55 31.954
0.9175618330000077 0.222 -0.175 0.755 -30.252 -16.802 27.908
0.9245937080000033 0.25 -0.179 0.799 -34.847 -16.038 25.023
0.9364315420000082 0.262 -0.183 0.847 -38.45 -14.687 22.244
0.9483027499999821 0.267 -0.195 0.885 -41.71 -10.748 19.924
0.9556419999999832 0.256 -0.213 0.878 -42.13 -7.725 17.153
0.9673484999999857 0.233 -0.203 0.883 -43.962 -7.817 10.985
0.9746418329999926 0.233 -0.243 0.904 -42.298 -7.305 4.466
0.9867456670000081 0.245 -0.293 0.938 -38.557 -5.038 1.435
0.9987184169999921 0.255 -0.29 0.953 -35.786 -3.656 -1.153
1.0057635830000038 0.245 -0.291 0.959 -29.733 -0.252 -4.229
1.0178722919999927 0.247 -0.287 0.95 -31.389 1.382 -7.481
1.0249924999999962 0.267 -0.299 0.991 -27.176 4.588 -12.679
1.0372172920000082 0.26 -0.313 1.041 -25.427 8.374 -12.191
1.048801124999983 0.227 -0.308 1.033 -23.878 11.275 -14.901
1.055584500000009 0.233 -0.299 1.05 -25.0 17.214 -15.29
1.067774749999984 0.167 -0.338 1.047 -14.878 15.664 -22.221
1.074610457999995 0.198 -0.32 1.033 -15.809 16.0 -22.107
1.0866503329999944 0.162 -0.39 1.028 -8.221 17.939 -32.45
1.0988459579999983 0.158 -0.366 0.979 -10.588 16.977 -30.748
1.1059329169999899 0.151 -0.349 1.0 -8.58 16.977 -37.695
1.1177552919999982 0.141 -0.314 1.031 -12.267 16.969 -42.42
1.1247288749999882 0.169 -0.302 1.083 -13.557 20.29 -44.26
1.1367288749999886 0.141 -0.313 1.097 -16.046 23.382 -44.718
1.1486720000000048 0.086 -0.326 1.091 -16.137 24.687 -46.046
1.155736499999989 0.036 -0.351 1.089 -15.496 24.069 -48.725
1.1673573749999946 0.0 -0.387 1.066 -10.992 22.252 -52.015
1.174518374999991 -0.037 -0.386 1.049 -7.237 18.885 -52.969
1.186570291999999 -0.06 -0.407 1.041 -1.55 14.962 -54.733
1.1983391249999897 -0.074 -0.412 1.041 2.847 11.221 -54.42
1.2057316249999985 -0.081 -0.395 1.058 6.511 8.573 -54.229
1.2176637080000035 -0.079 -0.388 1.056 8.702 6.229 -53.244
1.2250199169999973 -0.051 -0.416 1.107 8.832 7.137 -52.237
1.2370581250000043 -0.062 -0.419 1.113 9.977 9.206 -50.229
1.2430735829999833 -0.096 -0.427 1.115 8.519 9.427 -49.931
1.2561196670000072 -0.138 -0.479 1.103 7.87 9.13 -49.153
1.2681293329999903 -0.162 -0.512 1.116 7.168 8.473 -45.947
1.2754287079999926 -0.185 -0.564 1.08 6.794 6.061 -43.214
1.2875267919999942 -0.18 -0.552 1.076 5.0 2.969 -41.473
1.2947727079999822 -0.149 -0.561 1.083 4.802 1.153 -40.305
1.3065520419999928 -0.103 -0.525 1.078 -0.282 0.458 -37.023
1.3186635829999886 -0.066 -0.494 1.086 -5.939 2.832 -34.809
1.3256901670000047 -0.058 -0.492 1.078 -11.695 6.511 -32.115
1.3375054169999885 -0.08 -0.505 1.048 -15.733 9.282 -29.573
1.344600249999985 -0.108 -0.541 1.028 -15.336 10.542 -28.29
1.3564193750000015 -0.117 -0.57 1.004 -11.038 11.305 -26.55
1.3681753749999928 -0.115 -0.571 0.991 -11.511 10.42 -24.359
1.3752284580000094 -0.105 -0.569 0.969 -12.397 10.55 -21.908
1.3870217500000024 -0.106 -0.573 0.97 -13.237 10.992 -17.794
1.3988227499999937 -0.117 -0.592 0.946 -15.443 10.565 -12.298
1.4059353330000022 -0.139 -0.589 0.917 -21.145 9.87 -6.366
1.4180202919999942 -0.124 -0.58 0.869 -24.489 9.969 -1.885
1.4249897079999982 -0.145 -0.583 0.896 -30.924 5.008 -0.496
1.4370624579999856 -0.167 -0.579 0.888 -36.305 8.939 -2.863
1.4429585000000031 -0.103 -0.545 0.812 -31.649 4.405 6.122
1.456182874999996 -0.077 -0.596 0.875 -34.534 9.336 0.603
1.468093582999984 -0.018 -0.553 0.807 -20.84 14.076 2.489
1.475075041999986 -0.013 -0.569 0.777 -11.58 16.13 3.198
1.4870886669999948 -0.047 -0.595 0.72 -4.573 14.405 2.191
1.4944236670000066 -0.021 -0.609 0.722 2.824 14.931 6.328
1.5064412920000052 -0.052 -0.581 0.666 1.397 13.145 11.603
1.5184414169999911 -0.037 -0.513 0.67 2.191 14.061 17.053
1.5258050829999945 -0.05 -0.526 0.651 0.947 12.771 18.702
1.537816666999987 -0.018 -0.47 0.646 -1.687 15.191 28.0
1.5448487079999893 -0.04 -0.441 0.613 -3.053 15.634 30.076
1.5567782500000078 -0.059 -0.453 0.596 1.771 15.489 28.71
1.5638507919999824 -0.087 -0.428 0.571 4.771 12.786 25.573
1.575971457999998 -0.088 -0.41 0.577 10.634 9.313 19.069
1.588109624999987 -0.101 -0.385 0.581 16.183 5.031 10.26
1.5950412919999906 -0.067 -0.422 0.648 25.771 3.336 0.634
1.607439333000002 -0.026 -0.423 0.706 32.435 3.099 -0.107
1.6143571670000085 -0.025 -0.412 0.735 35.321 5.71 1.45
1.6266684579999833 -0.032 -0.426 0.753 33.863 8.519 5.046
1.633663917000007 -0.066 -0.425 0.759 28.824 7.908 6.504
1.6458731250000085 -0.08 -0.436 0.779 20.84 2.802 7.031
1.658404666999985 -0.079 -0.449 0.78 14.191 7.481 6.023
1.6651654169999972 -0.066 -0.435 0.815 15.954 10.282 4.206
1.6776385419999826 -0.039 -0.416 0.863 20.542 5.679 3.214
1.684766792000005 -0.023 -0.388 0.883 15.977 4.191 3.099
1.6969994579999934 -0.028 -0.393 0.895 6.763 7.328 3.313
1.7040742920000014 -0.021 -0.386 0.928 -7.046 8.42 2.947
1.7162935830000094 -0.014 -0.407 0.957 -12.725 10.565 2.382
1.72843095799999 -0.029 -0.421 0.946 -14.282 11.061 2.313
1.7354162919999965 -0.064 -0.437 0.942 -13.985 10.489 1.908
1.7475820420000048 -0.074 -0.441 0.922 -13.832 9.313 1.061
1.7546582919999878 -0.064 -0.447 0.934 -13.206 7.878 -0.008
1.7667079579999836 -0.048 -0.458 0.95 -11.588 7.412 -0.527
1.7787652079999816 -0.057 -0.456 0.948 -10.298 7.267 -0.298
1.7860415419999924 -0.072 -0.459 0.93 -9.687 7.176 0.947
1.797969375000008 -0.086 -0.459 0.919 -7.16 6.45 0.504
1.805308832999998 -0.088 -0.465 0.921 -6.145 4.656 0.664
1.8173424169999919 -0.095 -0.451 0.906 -6.321 3.321 -0.038
1.8246534170000075 -0.097 -0.471 0.898 -8.282 1.458 -0.702
1.8366582079999887 -0.104 -0.479 0.901 -10.366 0.481 0.237
1.8486675000000048 -0.099 -0.473 0.923 -10.435 0.069 0.237
1.8559606249999945 -0.089 -0.474 0.912 -9.947 0.084 1.809
1.8679919580000046 -0.095 -0.467 0.895 -7.046 0.282 1.817
1.8753129170000022 -0.091 -0.477 0.892 -5.916 -0.733 1.87
1.8873061250000092 -0.083 -0.481 0.897 -4.023 -0.55 1.42
1.8945954579999977 -0.066 -0.465 0.89 -2.511 0.282 1.168
1.9066354579999825 -0.069 -0.47 0.884 -2.588 1.237 0.504
1.9186395829999867 -0.069 -0.466 0.888 -5.359 1.901 1.893
1.926011041999999 -0.073 -0.472 0.88 -7.809 2.679 2.198
1.9381998750000093 -0.072 -0.47 0.868 -8.626 3.382 1.939
1.9454936669999938 -0.062 -0.474 0.882 -9.031 3.58 2.634
1.9574803330000066 -0.077 -0.47 0.866 -8.092 4.87 1.672
1.964810041999982 -0.078 -0.476 0.877 -6.305 5.672 1.458
1.976910250000003 -0.074 -0.492 0.869 -4.0 5.855 2.473
1.9841617499999984 -0.066 -0.487 0.877 -1.046 6.687 3.374
1.9964247080000064 -0.075 -0.485 0.889 1.954 7.725 2.008
