Time AX AY AZ GX GY GZ
0.01447308299999861 -0.083 -0.324 0.941 0.412 -1.939 1.916
0.026462291000001414 -0.085 -0.316 0.952 -1.275 -1.527 1.252
0.033488374999990356 -0.082 -0.321 0.962 -1.519 -1.504 0.573
0.045637708000001 -0.078 -0.324 0.964 -0.313 -1.183 0.534
0.05796216599999582 -0.082 -0.338 0.976 1.122 -0.748 0.511
0.06537999999999045 -0.085 -0.334 0.967 0.916 0.344 0.649
0.07738241599999185 -0.093 -0.331 0.958 -0.557 0.863 1.183
0.08473070799999505 -0.108 -0.325 0.95 -1.679 0.947 2.122
0.096710250000001 -0.1 -0.326 0.951 -2.756 1.092 2.344
0.10403974999999832 -0.096 -0.323 0.951 -3.427 0.725 1.916
0.11628033299999174 -0.096 -0.325 0.953 -2.71 0.695 1.023
0.12361525000000029 -0.087 -0.338 0.952 -1.71 0.863 0.779
0.135614082999993 -0.089 -0.353 0.958 -0.176 1.481 0.382
0.1479070409999963 -0.086 -0.364 0.956 1.16 1.443 0.565
0.15517695799999842 -0.078 -0.381 0.954 2.824 1.565 0.985
0.16737816599999178 -0.072 -0.372 0.952 2.0 1.611 1.969
0.17469558300000188 -0.066 -0.365 0.945 -0.046 1.733 2.023
0.18672137499999053 -0.065 -0.35 0.93 -2.076 1.954 1.718
0.1940099579999952 -0.067 -0.325 0.917 -3.229 1.847 0.679
0.20604087499999935 -0.07 -0.325 0.916 -3.221 1.733 0.84
0.2121441249999947 -0.074 -0.307 0.903 -3.244 1.679 1.267
0.22559358299999133 -0.081 -0.3 0.906 -2.947 1.771 1.328
0.23758854099999382 -0.084 -0.299 0.901 -1.847 1.443 1.305
0.24488058299999693 -0.09 -0.302 0.899 -1.206 1.008 0.16
0.2569442909999964 -0.084 -0.292 0.911 -0.214 0.504 -1.122
0.2642584580000005 -0.089 -0.284 0.89 0.275 0.115 -1.069
0.27629741599999136 -0.101 -0.281 0.872 1.74 -0.511 -4.153
0.28368962499999384 -0.097 -0.278 0.883 1.427 -2.947 -4.603
0.29562245799999687 -0.061 -0.27 0.901 2.359 -3.267 -5.137
0.3076265830000011 -0.046 -0.255 0.901 2.977 -2.656 -5.885
0.3146673329999885 -0.034 -0.245 0.914 2.137 -0.908 -6.588
0.32676825000000065 -0.055 -0.253 0.911 -0.809 -0.137 -8.137
0.33412529099999233 -0.063 -0.243 0.896 -4.481 0.847 -7.908
0.3458629579999979 -0.079 -0.236 0.881 -7.191 0.74 -9.176
0.3578531249999912 -0.087 -0.242 0.877 -9.038 -0.115 -10.031
0.36465099999999495 -0.102 -0.254 0.865 -8.229 -1.84 -10.687
0.3765260409999911 -0.092 -0.263 0.863 -5.817 -3.366 -11.664
0.3835045829999899 -0.083 -0.275 0.875 -2.847 -5.87 -13.038
0.3958331659999885 -0.066 -0.29 0.877 0.405 -6.313 -15.191
0.40786970799999267 -0.048 -0.304 0.892 1.962 -6.939 -14.992
0.4149478329999994 -0.051 -0.318 0.881 1.71 -7.611 -14.802
0.4267038750000012 -0.03 -0.31 0.91 -0.84 -8.634 -14.382
0.433806582999992 -0.014 -0.291 0.95 -3.756 -8.511 -15.336
0.4458499579999966 -0.003 -0.28 0.939 -6.603 -7.275 -16.176
0.4576818329999952 -0.004 -0.269 0.964 -8.183 -7.855 -17.443
0.4647324580000003 -0.017 -0.297 0.982 -8.595 -6.038 -18.046
0.4764877079999934 -0.007 -0.318 1.014 -8.26 -6.099 -19.962
0.4835297500000024 -0.016 -0.352 1.029 -5.252 -4.885 -21.679
0.49560312500000236 -0.007 -0.363 1.074 -3.695 -4.962 -23.244
0.5073908749999987 -0.005 -0.374 1.101 -3.573 -3.198 -24.687
0.5144599579999891 -0.006 -0.377 1.137 -4.13 -0.718 -25.137
0.526466499999998 -0.023 -0.394 1.156 -4.702 2.237 -24.115
0.5336030829999885 -0.039 -0.377 1.179 -7.069 4.794 -21.626
0.5457330409999912 -0.091 -0.399 1.189 -9.45 7.588 -19.168
0.5575434160000015 -0.126 -0.414 1.193 -10.817 10.023 -18.45
0.5643736250000018 -0.167 -0.454 1.209 -10.137 12.832 -16.893
0.5760461249999906 -0.229 -0.497 1.199 -10.298 14.435 -15.855
0.5879587080000022 -0.271 -0.553 1.183 -10.298 14.061 -15.466
0.5952012909999951 -0.296 -0.606 1.171 -9.435 12.908 -14.397
0.6070239999999956 -0.318 -0.643 1.159 -7.771 10.374 -10.588
0.6141083750000007 -0.297 -0.648 1.145 -8.435 7.824 -10.26
0.6261359159999955 -0.314 -0.627 1.148 -4.588 8.992 -1.565
0.6381800829999946 -0.296 -0.592 1.106 -6.427 6.931 1.038
0.6452590829999991 -0.294 -0.56 1.142 -10.237 2.71 -10.947
0.6572654579999977 -0.341 -0.542 1.047 -22.076 6.878 -7.901
0.6643604579999902 -0.295 -0.601 1.017 -16.519 10.359 1.214
0.676316749999998 -0.296 -0.603 0.983 -18.947 1.878 4.802
0.683640957999998 -0.284 -0.577 0.965 -18.718 3.466 15.084
0.6957210409999988 -0.278 -0.587 0.913 -9.786 3.519 22.573
0.7076307499999928 -0.278 -0.569 0.897 0.924 0.305 27.748
0.7149248749999941 -0.256 -0.572 0.903 14.641 0.267 32.992
0.7267041659999904 -0.247 -0.586 0.858 28.954 -2.16 37.29
0.7340012499999915 -0.243 -0.582 0.837 42.305 -4.733 40.634
0.745910207999998 -0.238 -0.563 0.79 49.878 -8.168 44.802
0.7578888329999955 -0.218 -0.51 0.731 47.916 -13.168 48.359
0.764958790999998 -0.168 -0.421 0.682 40.137 -17.779 51.214
0.776774415999995 -0.118 -0.372 0.687 33.153 -21.977 53.092
0.783758290999998 -0.079 -0.333 0.692 27.863 -25.427 54.527
0.7955775410000001 -0.037 -0.296 0.669 24.504 -27.412 56.511
0.8076096249999978 -0.029 -0.252 0.637 16.244 -27.641 58.267
0.8147020830000002 -0.03 -0.222 0.619 13.748 -30.427 58.924
0.82649808299999 -0.018 -0.206 0.619 11.427 -26.198 57.885
0.833651207999992 0.007 -0.228 0.617 12.412 -30.962 57.344
0.8456083330000013 0.056 -0.221 0.61 15.969 -32.29 55.344
0.8576269999999937 0.09 -0.217 0.635 19.977 -30.962 52.573
0.8647258329999943 0.106 -0.198 0.6 21.473 -29.771 48.878
0.876753457999996 0.136 -0.172 0.634 20.901 -27.214 45.924
0.8837952499999915 0.166 -0.139 0.638 16.985 -25.55 45.015
0.8958538750000002 0.19 -0.124 0.657 11.878 -22.527 44.0
0.9079045409999935 0.191 -0.102 0.667 4.244 -19.443 44.557
0.9150240829999916 0.184 -0.111 0.652 -4.992 -17.466 44.183
0.926733083000002 0.187 -0.126 0.676 -12.351 -16.099 42.725
0.9337521659999908 0.182 -0.119 0.67 -18.618 -15.252 39.664
0.945859458000001 0.193 -0.106 0.696 -24.229 -14.786 36.13
0.957624624999994 0.198 -0.097 0.712 -28.26 -13.557 32.626
0.9646515829999913 0.212 -0.089 0.732 -31.412 -12.504 28.672
0.9764861249999939 0.218 -0.088 0.773 -33.13 -11.359 26.267
0.9835659159999892 0.235 -0.069 0.8 -38.252 -10.198 22.16
0.9956362079999934 0.245 -0.067 0.823 -41.267 -7.023 17.496
1.007626665999993 0.244 -0.084 0.848 -47.046 -3.328 13.511
1.0144662080000018 0.227 -0.121 0.863 -52.305 1.802 10.298
1.0267974579999901 0.208 -0.155 0.866 -57.878 4.336 8.099
1.0337620829999992 0.185 -0.19 0.879 -61.198 3.229 5.939
1.0460664160000022 0.17 -0.208 0.896 -60.901 2.626 3.382
1.0530337499999973 0.168 -0.225 0.928 -57.084 2.954 0.298
1.0653103329999993 0.167 -0.212 0.94 -54.076 2.176 -4.053
1.0775900409999934 0.159 -0.227 0.947 -49.321 3.053 -9.084
1.0843246249999936 0.159 -0.266 0.982 -41.649 4.931 -13.786
1.0965623749999907 0.143 -0.257 0.992 -32.84 6.305 -16.412
1.1033229159999962 0.125 -0.272 0.997 -23.947 7.092 -21.779
1.115581082999995 0.104 -0.282 1.01 -17.481 6.954 -25.687
1.127825915999992 0.106 -0.3 1.038 -9.885 6.603 -30.282
1.134954332999996 0.12 -0.313 1.083 -4.71 5.519 -33.473
1.14709758299999 0.123 -0.28 1.134 -1.802 7.0 -37.878
1.1539323749999966 0.106 -0.256 1.155 -1.573 8.641 -41.099
1.1661500000000018 0.076 -0.295 1.169 -2.061 10.756 -43.29
1.172024124999993 0.043 -0.33 1.172 -2.458 12.046 -43.427
1.1856307909999941 0.006 -0.385 1.156 0.748 9.756 -46.221
1.1976268749999974 0.001 -0.357 1.161 2.008 8.267 -45.45
1.2050110830000023 0.003 -0.36 1.179 4.168 7.901 -47.573
1.2169384580000013 0.005 -0.363 1.196 6.244 8.321 -49.321
1.2242413749999912 0.0 -0.387 1.201 7.672 10.069 -50.389
1.2364017909999916 -0.01 -0.402 1.213 9.321 12.565 -49.977
1.2480712910000022 -0.065 -0.431 1.218 8.382 13.733 -47.45
1.255357625000002 -0.093 -0.458 1.16 6.107 16.076 -48.656
1.2672000409999953 -0.115 -0.493 1.145 0.206 15.916 -46.908
1.2742429999999985 -0.127 -0.501 1.124 -5.443 16.015 -44.382
1.2861701249999982 -0.135 -0.506 1.11 -10.305 15.466 -41.481
1.2978865829999933 -0.134 -0.498 1.099 -14.137 15.687 -38.733
1.3049076659999912 -0.139 -0.493 1.089 -15.542 15.809 -36.084
1.3167751659999993 -0.15 -0.488 1.069 -15.084 16.649 -32.855
1.3238095409999886 -0.159 -0.483 1.03 -15.435 17.031 -30.573
1.3356606249999885 -0.175 -0.495 0.999 -16.031 16.649 -28.649
1.3473877499999958 -0.191 -0.506 0.958 -17.603 15.992 -25.779
1.3542196659999917 -0.188 -0.518 0.943 -18.069 14.511 -23.458
1.3660699160000007 -0.191 -0.539 0.918 -17.748 12.908 -22.0
1.3778328329999994 -0.177 -0.543 0.885 -16.702 10.74 -19.992
1.3850029580000012 -0.152 -0.566 0.87 -13.458 8.885 -18.847
1.3969522080000019 -0.116 -0.577 0.853 -9.794 7.252 -15.55
1.4040093750000011 -0.091 -0.592 0.826 -7.115 7.832 -14.382
1.416040499999994 -0.085 -0.575 0.804 -7.16 7.42 -11.611
1.428035874999992 -0.081 -0.566 0.773 -8.725 7.496 -8.855
1.4351256659999905 -0.091 -0.549 0.738 -11.489 7.359 -6.84
1.4471766249999973 -0.09 -0.534 0.738 -12.313 7.115 -5.634
1.4542522909999889 -0.086 -0.536 0.716 -12.534 5.893 -5.107
1.4662029160000003 -0.073 -0.511 0.73 -9.084 5.267 -4.176
1.473576499999993 -0.08 -0.495 0.732 -4.626 5.008 -3.908
1.4855704160000016 -0.075 -0.468 0.753 6.565 2.885 -2.916
1.4978948329999895 -0.056 -0.468 0.732 3.634 5.863 -2.344
1.5051869999999923 -0.066 -0.46 0.731 9.099 5.695 -1.221
1.5171614159999933 -0.077 -0.477 0.727 14.336 5.863 -1.099
1.5245325829999956 -0.044 -0.45 0.756 14.634 4.221 0.763
1.5365007909999946 -0.019 -0.41 0.783 18.618 6.557 0.275
1.5437732079999904 -0.026 -0.412 0.812 20.504 6.962 -0.893
1.5558370830000001 -0.039 -0.419 0.812 22.359 8.351 -0.061
1.5678562499999913 -0.047 -0.413 0.822 21.282 8.687 0.634
1.5751353750000021 -0.059 -0.426 0.84 18.366 8.908 1.328
1.587144749999993 -0.066 -0.42 0.844 14.916 8.382 1.519
1.594497790999995 -0.048 -0.423 0.879 11.893 8.0 2.168
1.606760915999999 -0.038 -0.425 0.898 10.618 8.489 2.664
1.6140069579999903 -0.043 -0.409 0.895 8.809 8.527 2.779
1.6262824159999951 -0.054 -0.404 0.882 6.069 8.267 2.366
1.6336021659999886 -0.062 -0.413 0.894 3.931 7.702 1.969
1.6458071249999904 -0.051 -0.421 0.905 1.565 6.397 2.992
1.6578405829999951 -0.052 -0.408 0.914 -0.527 6.053 2.748
1.6651922079999935 -0.046 -0.4 0.915 -2.198 4.664 4.038
1.6771468329999948 -0.05 -0.412 0.907 -3.588 3.595 4.015
1.6844760409999964 -0.052 -0.404 0.914 -4.809 2.618 4.458
1.69672525 -0.053 -0.41 0.917 -5.099 1.374 4.046
1.703790665999989 -0.056 -0.413 0.915 -3.939 -0.221 3.137
1.7157989999999899 -0.047 -0.407 0.925 -1.107 -0.71 2.794
1.7280508749999939 -0.039 -0.403 0.928 3.344 -0.008 1.573
1.7354091659999966 -0.032 -0.4 0.933 4.992 -0.908 1.924
1.7473845410000024 -0.033 -0.394 0.925 5.74 -0.55 0.786
1.7546905829999986 -0.028 -0.411 0.931 6.046 -1.206 0.672
1.7667022499999945 -0.026 -0.398 0.938 7.794 -0.962 0.092
1.7739758749999908 -0.033 -0.405 0.929 8.084 -1.221 -0.13
1.786037915999998 -0.035 -0.411 0.919 7.122 -1.237 -0.16
1.798011915999993 -0.037 -0.401 0.918 6.015 -0.718 0.55
1.8055879159999932 -0.045 -0.389 0.906 3.802 0.0 0.405
1.8176422909999985 -0.051 -0.385 0.897 1.137 0.107 1.076
1.8251984579999885 -0.047 -0.38 0.895 0.099 0.29 1.405
1.8371541659999906 -0.066 -0.38 0.884 -1.542 -0.573 1.313
1.8442369579999962 -0.061 -0.373 0.879 -2.893 -0.237 1.542
1.8561462910000017 -0.063 -0.397 0.892 -2.832 -0.664 1.122
1.863192957999999 -0.078 -0.39 0.884 -2.954 -0.748 1.985
1.8753442499999977 -0.086 -0.397 0.885 -3.931 -1.374 2.473
1.8875197079999992 -0.083 -0.382 0.883 -5.107 -2.023 3.038
1.894695833 -0.084 -0.384 0.875 -5.122 -2.214 2.55
1.906853874999996 -0.073 -0.393 0.891 -4.244 -2.702 2.328
1.9140802080000014 -0.071 -0.393 0.875 -1.924 -3.42 2.328
1.926257832999994 -0.056 -0.392 0.887 1.214 -3.458 2.275
1.9335965829999964 -0.034 -0.389 0.898 3.221 -3.504 1.489
1.9457139159999883 -0.016 -0.381 0.929 5.427 -2.122 -0.198
1.9576848330000018 -0.008 -0.381 0.928 6.153 -0.244 -0.786
1.964942999999991 -0.019 -0.391 0.929 5.45 0.427 -0.71
1.976925332999997 -0.03 -0.403 0.928 5.305 2.122 -0.908
1.9842226659999938 -0.035 -0.405 0.932 3.954 2.038 -0.176
1.996529124999995 -0.054 -0.407 0.929 2.542 2.221 0.389
