Time AX AY AZ GX GY GZ
0.012904875000003813 -0.138 -0.446 0.856 -2.13 4.137 0.832
0.02494983300002218 -0.128 -0.459 0.865 2.656 2.809 -0.16
0.032026250000001255 -0.134 -0.45 0.849 4.481 1.55 -0.282
0.044365375000012364 -0.136 -0.456 0.865 1.863 1.382 0.015
0.05152108300001146 -0.138 -0.466 0.866 -1.924 1.908 1.504
0.06373508300001163 -0.13 -0.422 0.843 -8.802 1.611 2.504
0.07097529099999633 -0.142 -0.419 0.848 -6.511 2.13 -1.0
0.0831584160000034 -0.142 -0.458 0.858 -5.0 -0.252 -0.931
0.08914312500002097 -0.101 -0.442 0.874 -2.885 0.74 -0.863
0.10228920800000196 -0.136 -0.429 0.848 -3.573 -0.16 -3.053
0.11426795799999923 -0.13 -0.455 0.853 -4.885 -0.809 -1.817
0.12133816600001524 -0.112 -0.461 0.878 -4.87 -0.595 -0.374
0.1334271249999972 -0.106 -0.46 0.882 -6.389 -1.557 -0.458
0.14045079100000635 -0.094 -0.448 0.874 -5.817 -0.321 -1.397
0.15244358300000727 -0.093 -0.473 0.895 -4.832 0.206 -2.802
0.1645688750000147 -0.103 -0.455 0.864 -4.069 1.603 -3.74
0.1718345830000203 -0.095 -0.46 0.821 -7.382 3.855 -3.939
0.18381095800000935 -0.116 -0.454 0.855 -2.397 1.595 -4.122
0.19093566600000145 -0.124 -0.432 0.842 -5.595 0.924 -4.733
0.20290304100001322 -0.124 -0.426 0.828 -6.58 0.58 -6.023
0.214933708000018 -0.118 -0.433 0.834 -6.191 -0.015 -5.527
0.22227833300001976 -0.128 -0.43 0.83 -5.214 0.145 -6.107
0.23402341600001364 -0.146 -0.425 0.816 -5.359 -0.069 -6.58
0.24135770800000955 -0.146 -0.419 0.823 -5.015 -1.588 -7.756
0.253141166000006 -0.148 -0.435 0.823 -3.053 -2.557 -8.038
0.2605034580000165 -0.137 -0.428 0.813 -3.382 -4.008 -8.069
0.2722841660000199 -0.128 -0.423 0.833 -4.16 -4.939 -9.275
0.28430054100002167 -0.11 -0.435 0.846 -4.252 -5.344 -10.344
0.2913507910000135 -0.096 -0.435 0.869 -3.443 -5.634 -11.351
0.30325104100001 -0.107 -0.441 0.874 -4.237 -5.305 -12.649
0.3149395830000117 -0.122 -0.439 0.872 -3.809 -4.893 -13.458
0.3219940000000179 -0.128 -0.45 0.881 -3.015 -5.824 -13.359
0.3340376660000004 -0.127 -0.447 0.884 -2.153 -7.511 -13.588
0.3411629160000018 -0.119 -0.454 0.902 -0.313 -8.565 -14.908
0.35290266600000564 -0.095 -0.463 0.917 1.504 -8.939 -15.863
0.3649698750000141 -0.078 -0.477 0.945 4.779 -8.595 -17.389
0.37200491600000873 -0.084 -0.482 0.966 7.405 -7.893 -18.214
0.384033708000004 -0.116 -0.521 0.982 10.511 -8.321 -18.137
0.3911752500000034 -0.139 -0.525 1.0 11.229 -8.947 -17.885
0.40296637500000543 -0.144 -0.525 1.029 12.725 -9.183 -18.656
0.4147130830000094 -0.149 -0.523 1.048 13.557 -9.198 -17.366
0.4220461250000085 -0.148 -0.508 1.019 15.679 -1.191 -4.076
0.4338256249999972 -0.181 -0.52 1.081 13.817 -4.763 -13.939
0.4408942080000031 -0.199 -0.54 1.086 8.634 -2.183 -12.702
0.4528685829999972 -0.21 -0.571 1.084 4.397 -1.916 -9.924
0.46493137500002035 -0.218 -0.589 1.086 -0.29 0.298 -6.885
0.4722667910000098 -0.237 -0.617 1.107 -7.466 1.733 -2.237
0.4842587079999987 -0.283 -0.64 1.106 -6.878 3.153 0.672
0.491530833000013 -0.298 -0.67 1.08 -5.229 2.542 3.183
0.5038047910000216 -0.316 -0.687 1.057 1.282 1.939 6.076
0.5111464580000131 -0.327 -0.727 1.021 9.321 -0.496 8.954
0.5231276660000219 -0.326 -0.765 1.008 20.504 -3.779 12.511
0.5349130000000173 -0.31 -0.781 0.977 30.794 -7.237 17.038
0.5422465830000078 -0.292 -0.792 0.953 35.282 -9.634 23.183
0.5542298330000222 -0.281 -0.783 0.925 35.939 -10.824 29.779
0.5613184580000166 -0.26 -0.762 0.901 34.092 -12.382 36.595
0.5728729159999943 -0.251 -0.719 0.864 33.534 -13.817 40.359
0.5850642500000163 -0.234 -0.672 0.831 32.435 -16.618 44.031
0.5925199579999969 -0.233 -0.601 0.82 30.122 -19.336 46.626
0.6038817910000205 -0.206 -0.583 0.843 30.221 -19.954 50.076
0.6106250830000022 -0.212 -0.537 0.814 33.992 -18.84 54.221
0.6225147500000219 -0.22 -0.507 0.779 33.389 -20.664 56.756
0.6349345410000069 -0.224 -0.487 0.738 34.153 -23.107 57.74
0.6420254159999956 -0.211 -0.455 0.717 32.763 -26.763 59.16
0.6537477079999974 -0.188 -0.435 0.712 33.298 -30.053 60.481
0.6607954579999955 -0.152 -0.412 0.684 34.618 -32.603 62.458
0.6725190410000152 -0.138 -0.396 0.64 29.397 -33.344 65.511
0.6845207500000186 -0.137 -0.376 0.646 37.519 -39.137 66.26
0.6917493750000006 -0.112 -0.363 0.619 36.756 -43.13 69.435
0.7034207910000134 -0.084 -0.342 0.603 34.344 -47.832 67.947
0.7105179160000148 -0.03 -0.298 0.594 29.046 -49.534 66.275
0.722476166000007 0.023 -0.238 0.572 21.366 -50.42 62.229
0.7342631250000125 0.08 -0.219 0.584 16.053 -51.611 60.565
0.7416323749999947 0.138 -0.219 0.625 16.107 -50.939 56.802
0.753376750000001 0.166 -0.216 0.63 18.351 -50.42 53.313
0.7607117910000056 0.225 -0.186 0.625 24.969 -52.366 52.275
0.7724667079999961 0.17 -0.197 0.643 23.855 -45.443 46.885
0.7845269160000043 0.183 -0.204 0.644 17.527 -46.969 44.137
0.7918193750000171 0.217 -0.182 0.656 9.374 -43.008 42.351
0.8039082079999957 0.259 -0.152 0.689 1.908 -41.336 40.695
0.8108917499999961 0.295 -0.127 0.709 -6.084 -38.038 43.321
0.8229860410000072 0.307 -0.145 0.736 -8.733 -33.359 40.824
0.8347814159999984 0.302 -0.139 0.738 -15.824 -29.947 40.641
0.8418020000000013 0.295 -0.126 0.756 -22.183 -28.031 36.74
0.8535727080000015 0.302 -0.124 0.771 -28.115 -27.267 31.756
0.860676791000003 0.341 -0.129 0.82 -34.015 -26.55 27.901
0.8726767910000035 0.367 -0.125 0.852 -36.008 -21.664 25.168
0.8845007500000008 0.368 -0.134 0.876 -37.832 -17.916 20.191
0.8916028330000074 0.365 -0.169 0.883 -39.962 -13.733 17.855
0.9033888330000082 0.342 -0.177 0.866 -43.053 -10.183 14.527
0.9106782500000179 0.33 -0.188 0.872 -42.618 -6.405 9.878
0.92269729100002 0.321 -0.214 0.867 -42.504 -4.908 6.718
0.9347296660000097 0.333 -0.215 0.887 -43.443 -2.504 2.863
0.9420142080000176 0.329 -0.201 0.914 -44.313 0.664 -1.168
0.9540455830000099 0.327 -0.211 0.923 -43.695 5.252 -4.885
0.961081207999996 0.326 -0.227 0.935 -43.122 8.275 -8.55
0.9731716250000204 0.309 -0.244 0.948 -40.748 11.336 -12.748
0.9849492080000175 0.305 -0.26 0.967 -38.145 14.802 -17.191
0.9920181660000083 0.287 -0.286 0.963 -35.603 17.427 -20.977
1.0037354579999942 0.237 -0.318 1.031 -35.588 21.359 -22.496
1.0106685830000117 0.282 -0.308 1.013 -32.687 19.183 -26.901
1.0227578749999964 0.265 -0.311 1.023 -26.496 24.122 -33.0
1.0347119160000204 0.246 -0.342 1.039 -23.473 26.58 -37.573
1.0414118749999943 0.237 -0.349 1.067 -20.794 29.786 -40.008
1.053512416000018 0.213 -0.334 1.076 -20.084 31.489 -43.924
1.060261541000017 0.191 -0.346 1.098 -17.466 34.267 -46.847
1.0725416250000137 0.165 -0.347 1.085 -17.351 35.191 -49.908
1.0844489579999959 0.144 -0.356 1.087 -17.351 35.977 -53.779
1.0911652500000173 0.124 -0.354 1.089 -17.969 35.817 -56.969
1.1032072910000181 0.116 -0.351 1.1 -18.069 36.611 -59.817
1.1099747500000205 0.111 -0.367 1.113 -16.534 37.718 -61.031
1.1221950830000083 0.091 -0.372 1.108 -14.626 38.71 -62.527
1.1341732500000035 0.062 -0.394 1.13 -10.237 39.809 -64.443
1.141045125000005 0.027 -0.424 1.115 -6.328 39.595 -65.611
1.153274874999994 -0.004 -0.446 1.123 -2.466 38.542 -65.718
1.160216332999994 -0.04 -0.481 1.104 2.168 36.588 -66.29
1.1723105830000122 -0.048 -0.488 1.104 1.748 34.435 -62.992
1.184248958000012 -0.094 -0.512 1.084 1.099 32.099 -64.198
1.1913611660000072 -0.104 -0.522 1.064 -3.794 30.748 -63.221
1.2031902079999952 -0.082 -0.531 1.086 -10.221 31.664 -59.87
1.2149207500000045 -0.098 -0.548 1.077 -15.954 32.901 -57.42
1.2220258750000141 -0.12 -0.57 1.07 -20.29 34.405 -53.893
1.233854291 -0.161 -0.601 1.073 -21.695 34.87 -51.641
1.240909208000005 -0.196 -0.617 1.028 -23.275 32.855 -49.069
1.252776166000018 -0.23 -0.64 1.013 -21.893 30.618 -46.565
1.2645126660000017 -0.237 -0.637 0.975 -20.779 27.092 -42.504
1.2710771659999978 -0.253 -0.626 0.954 -19.588 22.733 -38.26
1.282959040999998 -0.23 -0.611 0.942 -19.0 19.565 -33.137
1.294901791000001 -0.172 -0.589 0.915 -18.374 17.481 -31.328
1.302027124999995 -0.169 -0.58 0.95 -16.611 17.908 -27.244
1.3138352910000037 -0.157 -0.591 0.92 -10.023 17.527 -25.87
1.3209342910000146 -0.155 -0.622 0.901 -3.519 16.672 -24.626
1.3329763750000154 -0.147 -0.65 0.903 2.603 16.489 -22.29
1.3447665410000127 -0.122 -0.667 0.902 8.931 16.771 -19.351
1.351795457999998 -0.124 -0.661 0.876 18.046 14.176 -17.626
1.363822416000005 -0.113 -0.666 0.831 9.481 16.992 -15.023
1.3708970410000063 -0.105 -0.656 0.827 6.511 14.771 -11.344
1.3829323330000136 -0.083 -0.637 0.799 1.473 15.756 -8.672
1.394943583000014 -0.07 -0.609 0.788 -5.038 16.076 -5.305
1.4019977080000103 -0.072 -0.575 0.763 -9.962 15.695 -2.618
1.4141119580000066 -0.063 -0.55 0.72 -15.427 15.053 -2.55
1.4208989159999987 -0.105 -0.553 0.763 -20.183 17.626 -11.198
1.432905125000019 -0.056 -0.54 0.737 -14.939 17.511 -1.145
1.444772166000007 -0.072 -0.521 0.734 -10.389 17.267 3.237
1.4520469160000005 -0.083 -0.517 0.708 -0.473 18.382 3.519
1.464045249999998 -0.104 -0.533 0.685 9.427 17.489 3.221
1.4713049580000188 -0.125 -0.533 0.67 18.359 15.252 2.74
1.4833592909999993 -0.11 -0.514 0.666 24.863 13.74 2.695
1.4907017499999995 -0.101 -0.506 0.672 27.313 12.435 4.351
1.5027133330000026 -0.112 -0.492 0.669 25.84 11.603 5.45
1.5147075000000143 -0.109 -0.483 0.678 22.679 10.786 6.336
1.5220669580000106 -0.104 -0.466 0.685 18.221 9.198 6.901
1.5340449159999991 -0.093 -0.466 0.701 15.023 8.038 7.656
1.5413395000000207 -0.07 -0.457 0.728 13.466 7.397 9.031
1.55334562500002 -0.082 -0.444 0.737 13.267 7.718 9.046
1.560618500000004 -0.084 -0.424 0.757 12.962 7.802 9.0
1.5729462910000223 -0.08 -0.426 0.76 13.015 7.321 7.618
1.5849830410000152 -0.064 -0.414 0.801 13.176 7.275 6.374
1.5920920410000008 -0.057 -0.407 0.827 16.985 7.947 5.687
1.6042443750000075 -0.052 -0.427 0.844 19.206 4.679 6.412
1.611553000000015 -0.079 -0.42 0.824 16.214 9.542 6.771
1.6235868330000187 -0.11 -0.429 0.826 13.13 12.0 5.198
1.6308607080000002 -0.101 -0.437 0.838 15.71 7.16 4.344
1.6431679580000207 -0.088 -0.426 0.859 14.55 3.45 3.45
1.6504447910000124 -0.069 -0.442 0.873 6.183 4.023 4.832
1.662450457999995 -0.058 -0.437 0.876 -3.557 4.389 7.099
1.6746964160000175 -0.063 -0.422 0.893 -8.16 3.809 6.756
1.682045125000002 -0.062 -0.423 0.901 -9.939 2.695 6.13
1.6940251660000172 -0.06 -0.436 0.912 -7.908 3.046 5.137
1.7013477499999965 -0.09 -0.452 0.887 -4.885 3.137 4.008
1.7133304160000193 -0.103 -0.448 0.899 -3.191 1.656 4.656
1.7206703330000153 -0.123 -0.442 0.873 -1.45 0.015 3.962
1.7326821660000178 -0.102 -0.456 0.88 -1.71 -2.221 4.412
1.7449468750000108 -0.087 -0.433 0.895 0.359 -3.061 2.924
1.7522096659999988 -0.074 -0.447 0.91 0.023 -4.931 3.321
1.7642537910000158 -0.052 -0.44 0.914 -0.053 -4.473 3.763
1.7712750000000028 -0.062 -0.44 0.919 -0.573 -3.389 2.611
1.783333875000011 -0.067 -0.468 0.918 -1.748 -3.076 4.244
1.790690374999997 -0.069 -0.457 0.899 -4.405 -3.351 5.802
1.8027098329999944 -0.066 -0.453 0.904 -4.641 -2.87 5.198
1.8147010000000137 -0.064 -0.457 0.901 -3.748 -3.176 4.504
1.8220513330000188 -0.055 -0.452 0.893 -2.29 -2.679 5.656
1.8340278750000039 -0.05 -0.448 0.882 -2.023 -2.84 4.298
1.8413472500000125 -0.056 -0.43 0.887 0.076 -1.466 3.985
1.853335541000007 -0.059 -0.421 0.87 0.725 -0.977 3.038
1.8606481250000115 -0.053 -0.417 0.873 0.023 -0.954 3.321
1.872689916000013 -0.069 -0.421 0.883 0.802 -0.137 2.672
1.8849211250000053 -0.068 -0.428 0.884 0.802 0.618 1.969
1.8922458750000146 -0.053 -0.431 0.899 2.504 2.855 1.939
1.904482291000022 -0.06 -0.424 0.887 3.015 3.985 2.672
1.911778541000018 -0.087 -0.446 0.88 1.824 4.405 3.84
1.9240825830000006 -0.094 -0.432 0.864 0.282 4.504 3.939
1.9311325410000109 -0.102 -0.43 0.865 -0.496 4.412 2.649
1.9434651250000172 -0.102 -0.411 0.863 0.084 3.542 2.176
1.950507416000022 -0.095 -0.408 0.871 1.725 3.298 0.672
1.9629950409999992 -0.106 -0.414 0.861 6.275 3.282 0.924
1.970238791000014 -0.053 -0.405 0.922 5.145 3.45 1.565
1.9824464579999983 -0.063 -0.394 0.909 6.679 7.382 -0.351
1.9947179579999954 -0.072 -0.412 0.897 4.206 8.053 -0.939
2.0020889580000016 -0.097 -0.416 0.871 2.267 8.328 -1.267
