Time AX AY AZ GX GY GZ
0.012698833000001741 -0.32 -0.074 0.936 -2.122 -2.55 -1.84
0.01955187500001898 -0.33 -0.076 0.935 -1.962 -5.076 -2.015
0.03174612500001217 -0.323 -0.088 0.934 -3.107 -4.237 -1.344
0.043706874999998035 -0.336 -0.088 0.938 -3.122 -5.374 -0.733
0.05077320800000962 -0.336 -0.089 0.915 -2.71 -4.397 0.588
0.06299687500001028 -0.344 -0.091 0.914 -3.962 -4.023 2.351
0.07030270800001404 -0.333 -0.108 0.919 -2.634 -4.389 2.947
0.08237500000001319 -0.327 -0.122 0.906 -3.649 -3.252 2.992
0.08941537500001573 -0.323 -0.137 0.932 -4.397 -4.221 3.267
0.10149770800001079 -0.301 -0.131 0.927 -5.832 -4.252 3.641
0.1133941669999956 -0.293 -0.134 0.927 -6.443 -2.679 4.29
0.12071816700000682 -0.292 -0.128 0.914 -6.695 -1.237 5.092
0.1327441250000163 -0.302 -0.127 0.883 -6.672 -1.252 5.42
0.14005391700001724 -0.292 -0.125 0.875 -6.313 -4.656 6.076
0.15205862499999512 -0.277 -0.11 0.858 -5.679 -8.237 5.542
0.1591791670000191 -0.283 -0.088 0.858 -4.863 -11.992 3.443
0.1712186670000051 -0.316 -0.072 0.861 -3.771 -17.252 2.359
0.18293720799999846 -0.315 -0.054 0.828 -4.634 -20.664 2.29
0.19035183299999403 -0.329 -0.05 0.824 -6.756 -25.817 2.389
0.2020903750000116 -0.314 -0.041 0.85 -8.374 -31.061 2.748
0.20941795800001728 -0.277 -0.033 0.874 -9.473 -33.115 2.786
0.221216333000001 -0.239 -0.025 0.901 -10.603 -34.198 2.107
0.23294258300001047 -0.194 -0.005 0.924 -11.771 -34.779 0.802
0.24000374999999963 -0.146 0.0 0.97 -12.794 -32.885 -1.611
0.25182245799999237 -0.13 -0.0 0.999 -13.29 -31.023 -4.061
0.26361929200001555 -0.103 -0.001 1.034 -13.718 -29.916 -6.55
0.27077304200000185 -0.069 -0.004 1.038 -13.489 -28.176 -9.885
0.28253654200000256 -0.069 -0.003 1.066 -13.26 -26.786 -13.008
0.28940554199999724 -0.063 0.006 1.059 -12.252 -23.687 -15.321
0.3011645420000093 -0.055 0.016 1.067 -12.947 -19.71 -17.885
0.31296720800000344 -0.05 0.012 1.091 -14.55 -18.374 -21.443
0.3200788750000072 -0.056 -0.002 1.113 -14.321 -18.916 -25.969
0.33161229200001685 -0.081 -0.024 1.149 -14.611 -17.908 -30.206
0.34347483300001613 -0.116 -0.051 1.186 -13.489 -14.809 -34.275
0.3503102500000068 -0.189 -0.073 1.209 -12.771 -12.481 -37.244
0.36215487500001586 -0.272 -0.104 1.261 -11.687 -7.313 -37.779
0.3691664170000024 -0.348 -0.135 1.302 -8.733 -5.282 -36.435
0.3811989170000061 -0.423 -0.147 1.295 -4.786 1.489 -33.87
0.3931932080000138 -0.496 -0.16 1.293 -3.603 4.794 -30.527
0.40032295800000384 -0.577 -0.188 1.305 -0.733 7.771 -25.931
0.41236233300000436 -0.671 -0.2 1.302 5.092 5.412 -19.252
0.4196378750000065 -0.701 -0.219 1.271 9.458 3.458 -11.267
0.4316325000000063 -0.731 -0.23 1.239 13.855 8.038 -2.718
0.44364075000001435 -0.791 -0.251 1.216 18.366 6.542 5.824
0.45095987499999524 -0.811 -0.281 1.163 24.664 0.878 14.168
0.4627148330000068 -0.845 -0.29 1.094 28.198 -8.519 23.168
0.46981895800001894 -0.797 -0.291 1.023 30.519 -11.733 34.718
0.4818084169999963 -0.728 -0.308 0.974 37.168 -7.786 44.756
0.49361579200001415 -0.7 -0.32 0.922 34.405 -18.084 52.588
0.5007181670000023 -0.631 -0.317 0.873 35.74 -22.206 59.389
0.5127739579999968 -0.617 -0.294 0.825 36.473 -27.679 65.626
0.5198251250000112 -0.598 -0.283 0.801 37.794 -35.84 71.198
0.5316850830000135 -0.536 -0.264 0.769 39.282 -43.168 77.183
0.5433977499999969 -0.47 -0.251 0.738 40.87 -47.397 84.405
0.5505132499999945 -0.348 -0.244 0.679 41.489 -47.176 90.275
0.5625954580000041 -0.236 -0.22 0.619 39.198 -45.053 94.214
0.5696386669999924 -0.12 -0.202 0.594 34.267 -44.122 95.885
0.5814277500000173 -0.011 -0.177 0.568 31.137 -43.763 94.328
0.5934300000000121 0.063 -0.168 0.532 25.794 -43.641 91.702
0.600634083000017 0.111 -0.143 0.514 20.328 -42.702 88.939
0.6125373330000059 0.133 -0.132 0.509 15.29 -45.756 85.603
0.6196877920000077 0.185 -0.108 0.478 9.786 -41.969 83.802
0.6316295830000058 0.222 -0.087 0.447 4.542 -34.313 81.954
0.6436746250000169 0.296 -0.052 0.424 -3.359 -28.702 80.0
0.6508917499999995 0.414 -0.033 0.369 -9.359 -19.344 76.321
0.6629645830000186 0.408 -0.017 0.436 -16.008 -16.542 69.542
0.6699330000000145 0.423 -0.004 0.454 -21.916 -13.374 63.397
0.6816929169999923 0.418 -0.008 0.495 -25.885 -12.267 57.405
0.6934260830000198 0.407 -0.026 0.544 -29.206 -11.489 50.992
0.700833958000004 0.423 -0.027 0.612 -32.229 -0.206 45.557
0.712824917000006 0.421 -0.042 0.688 -37.237 6.221 38.916
0.7199914580000097 0.406 -0.066 0.735 -41.649 14.214 33.733
0.7319265419999965 0.418 -0.065 0.771 -46.366 29.656 29.16
0.7437099580000108 0.436 -0.096 0.793 -45.282 58.198 27.702
0.7511407500000189 0.398 -0.101 0.867 -40.641 73.221 24.198
0.7628013329999987 0.337 -0.088 0.937 -42.924 55.031 15.504
0.7700620420000064 0.334 -0.076 0.916 -40.176 46.496 8.023
0.7820342500000095 0.318 -0.055 0.907 -39.832 56.511 1.817
0.7891447500000197 0.266 -0.059 0.956 -41.389 61.237 -6.237
0.8012281249999944 0.21 -0.095 1.015 -39.328 59.137 -12.718
0.812940832999999 0.168 -0.104 1.076 -35.779 52.878 -16.718
0.8200790420000033 0.183 -0.122 1.125 -30.466 58.107 -23.389
0.831834624999999 0.208 -0.087 1.165 -27.992 57.191 -29.687
0.837999458000013 0.177 -0.082 1.214 -29.542 67.29 -35.42
0.8510362080000107 0.17 -0.084 1.261 -33.336 78.992 -40.382
0.8627766670000199 0.148 -0.07 1.304 -36.023 77.817 -46.489
0.86982500000002 0.107 -0.065 1.343 -35.252 77.168 -53.076
0.8816123750000031 0.019 -0.077 1.337 -36.969 72.015 -56.893
0.8934132920000195 -0.023 -0.086 1.332 -38.603 70.061 -59.71
0.9004702500000121 -0.094 -0.108 1.339 -38.885 70.695 -61.473
0.91233758300001 -0.132 -0.095 1.316 -38.748 70.496 -61.817
0.9194109169999933 -0.184 -0.117 1.339 -37.931 71.313 -60.397
0.9311822079999956 -0.239 -0.104 1.315 -37.405 67.832 -59.641
0.9429627080000103 -0.271 -0.12 1.344 -28.466 55.221 -59.382
0.9498091250000016 -0.25 -0.11 1.325 -30.137 58.176 -59.351
0.9615927920000047 -0.275 -0.13 1.333 -22.389 49.626 -59.351
0.9733649169999978 -0.253 -0.127 1.342 -15.198 51.649 -60.794
0.9805172080000091 -0.299 -0.151 1.349 -0.916 56.84 -62.183
0.9925230420000162 -0.388 -0.147 1.342 10.267 59.588 -62.092
0.999640458000016 -0.471 -0.155 1.347 18.382 59.84 -60.29
1.0112694580000152 -0.521 -0.146 1.341 24.191 46.74 -57.656
1.0232188330000156 -0.562 -0.16 1.345 32.954 38.504 -53.374
1.029891708000008 -0.591 -0.158 1.308 42.473 29.962 -49.55
1.042096583000017 -0.61 -0.15 1.238 48.878 22.656 -44.626
1.0488128329999995 -0.581 -0.143 1.159 51.107 14.748 -41.443
1.0608446250000156 -0.591 -0.147 1.116 53.023 8.061 -38.779
1.073126000000002 -0.611 -0.15 1.07 56.603 1.16 -36.267
1.0798619580000093 -0.606 -0.165 1.047 60.832 -6.008 -33.107
1.0918569170000012 -0.61 -0.174 1.049 65.748 -15.366 -29.809
1.0987267080000152 -0.605 -0.171 1.037 70.58 -26.336 -26.466
1.110663125000002 -0.596 -0.172 1.004 72.924 -37.55 -23.397
1.12262475 -0.595 -0.166 0.973 73.855 -47.191 -19.718
1.1292031670000142 -0.579 -0.171 0.95 76.305 -55.756 -15.672
1.1412265830000194 -0.523 -0.154 0.906 74.901 -61.733 -12.695
1.1531313330000046 -0.492 -0.147 0.875 72.45 -69.237 -11.595
1.1600159580000025 -0.461 -0.122 0.846 68.42 -75.595 -11.534
1.1719396249999932 -0.444 -0.109 0.782 63.573 -78.496 -10.42
1.1789932920000012 -0.422 -0.093 0.775 55.603 -80.718 -9.435
1.1909157919999984 -0.403 -0.106 0.766 48.947 -79.107 -9.87
1.2030390000000182 -0.366 -0.117 0.764 43.58 -76.046 -8.916
1.2100562920000186 -0.341 -0.124 0.754 39.901 -70.183 -9.046
1.2218962500000146 -0.336 -0.12 0.754 36.42 -66.458 -8.176
1.2336104580000153 -0.288 -0.124 0.729 35.29 -60.145 -3.954
1.2407392500000185 -0.302 -0.119 0.727 34.008 -59.0 -3.756
1.2527701669999942 -0.319 -0.095 0.722 32.45 -67.595 -1.107
1.2597912500000064 -0.24 -0.108 0.688 34.237 -61.466 1.725
1.2719400420000113 -0.198 -0.105 0.676 34.389 -53.901 2.481
1.2836091670000087 -0.172 -0.095 0.663 30.817 -53.901 2.634
1.2909514170000023 -0.147 -0.086 0.643 24.313 -52.336 0.832
1.3027243749999968 -0.164 -0.079 0.649 16.71 -52.992 -0.519
1.3099428750000186 -0.164 -0.071 0.655 10.42 -53.008 0.198
1.3219338330000028 -0.106 -0.068 0.659 6.443 -41.305 0.847
1.32920900000002 -0.08 -0.053 0.687 2.183 -27.634 1.588
1.3412253330000112 -0.072 -0.032 0.688 -1.45 -17.962 1.87
1.3532272500000033 -0.084 -0.007 0.663 -6.855 -8.252 2.626
1.360275625000014 -0.095 0.002 0.664 -10.366 -3.511 3.71
1.3725344580000183 -0.084 0.005 0.676 -13.542 0.557 4.58
1.37960187500002 -0.077 -0.012 0.727 -13.985 2.588 4.977
1.3915926669999976 -0.056 -0.008 0.771 -13.351 4.229 4.0
1.4036540000000173 -0.049 -0.007 0.798 -13.038 6.305 3.542
1.4110191670000063 -0.037 0.006 0.823 -15.092 11.84 3.901
1.42296300000001 -0.026 0.008 0.841 -15.427 19.863 3.847
1.4302570000000117 -0.035 0.016 0.877 -16.481 25.55 4.008
1.4423244580000016 -0.044 0.021 0.885 -19.107 31.786 3.832
1.4493619170000045 -0.073 0.027 0.91 -23.099 38.855 4.061
1.4613999580000154 -0.085 0.02 0.935 -26.565 45.626 4.374
1.473403167000015 -0.125 0.008 0.958 -28.176 51.473 4.557
1.4807220000000143 -0.152 -0.006 0.974 -28.802 53.603 4.763
1.492537375000012 -0.186 -0.017 1.0 -28.802 53.198 5.588
1.4998276249999947 -0.158 -0.03 1.017 -28.679 53.611 5.42
1.5116050420000136 -0.143 -0.041 1.03 -27.038 55.595 5.466
1.5236222500000167 -0.15 -0.056 1.034 -25.527 54.817 4.832
1.5307012080000106 -0.142 -0.059 1.034 -23.099 54.084 4.824
1.542742292000014 -0.153 -0.062 1.039 -19.359 61.183 5.405
1.5498455830000069 -0.214 -0.078 1.104 -13.397 61.542 6.588
1.561782082999997 -0.248 -0.095 1.031 -0.573 38.237 5.718
1.569065208000012 -0.251 -0.045 0.974 6.351 32.588 7.168
1.5811606249999954 -0.287 -0.04 1.051 -2.107 15.481 5.519
1.593389166999998 -0.254 -0.069 1.056 2.237 0.275 4.855
1.6007386670000017 -0.218 -0.072 1.027 13.672 4.458 6.473
1.61266520800001 -0.211 -0.058 1.031 20.771 11.214 7.427
1.6200944170000184 -0.186 -0.06 1.042 20.427 12.366 4.718
1.6320445830000097 -0.197 -0.045 1.044 19.634 11.702 1.099
1.6391611669999975 -0.21 -0.036 1.015 14.863 13.321 -0.282
1.6511818330000096 -0.243 -0.032 1.018 10.626 8.122 -1.58
1.6631621250000137 -0.255 -0.035 1.015 7.061 0.756 -2.702
1.6704728750000015 -0.275 -0.042 0.977 4.779 0.45 -2.832
1.6824985000000083 -0.305 -0.044 0.983 1.382 -2.344 -2.237
1.6897800830000165 -0.3 -0.043 0.951 -2.901 -1.534 -0.832
1.701836333000017 -0.307 -0.054 0.974 -7.321 -3.13 0.794
1.7077972080000166 -0.32 -0.06 0.979 -9.183 -8.748 3.092
1.7209225000000004 -0.305 -0.062 0.99 -9.901 -11.656 5.29
1.7329433330000086 -0.252 -0.053 0.993 -7.412 -5.206 6.076
1.7402452500000152 -0.239 -0.048 1.003 -7.809 -3.931 5.443
1.7520322080000028 -0.227 -0.037 0.987 -8.511 -10.664 4.366
1.7593613749999975 -0.187 -0.037 0.967 -9.168 -13.397 2.557
1.7711762499999963 -0.182 -0.028 0.956 -10.229 -16.023 -0.046
1.7829380000000015 -0.189 -0.021 0.957 -11.244 -20.664 -2.611
1.789820958000007 -0.182 -0.018 0.93 -11.29 -22.855 -3.87
1.8015956250000045 -0.177 -0.019 0.945 -11.344 -20.26 -4.176
1.8133784580000167 -0.18 -0.014 0.941 -10.992 -16.427 -3.977
1.8205277920000071 -0.193 -0.014 0.943 -11.427 -15.458 -3.947
1.8323071670000104 -0.21 -0.015 0.968 -11.237 -16.74 -3.588
1.839421083000019 -0.19 -0.021 0.955 -11.817 -15.0 -3.336
1.8511754580000002 -0.164 -0.015 0.953 -11.725 -8.321 -3.573
1.8632058750000056 -0.197 0.0 1.0 -12.962 -8.412 -4.061
1.870277791999996 -0.166 -0.039 0.967 -11.405 -6.321 -5.153
1.8820535830000154 -0.176 -0.047 0.956 -10.962 -5.115 -5.595
1.8891533329999959 -0.187 -0.056 0.967 -9.863 -3.359 -5.183
1.9011554170000124 -0.181 -0.062 0.979 -10.115 -1.595 -4.489
1.9131645829999968 -0.181 -0.066 0.985 -8.939 1.901 -3.817
1.920227374999996 -0.193 -0.07 0.993 -7.496 5.641 -2.992
1.9321661670000196 -0.207 -0.077 1.003 -6.221 6.786 -2.649
1.9392883330000075 -0.21 -0.078 0.994 -4.038 7.221 -2.267
1.951429250000018 -0.213 -0.07 0.99 -1.664 8.366 -1.87
1.9635457500000086 -0.221 -0.069 0.981 0.16 8.878 -1.244
1.9706436670000187 -0.214 -0.069 0.974 1.817 8.153 -1.336
1.9830861670000104 -0.212 -0.06 0.968 2.252 8.771 -0.969
1.9903812080000023 -0.213 -0.062 0.963 2.931 8.473 -0.061
2.0024804170000152 -0.208 -0.051 0.946 3.344 7.672 0.198
