Time AX AY AZ GX GY GZ
0.01296833299998923 -0.052 -0.127 0.976 1.496 -3.794 3.046
0.019843374999993557 -0.051 -0.129 0.969 0.229 -4.542 3.443
0.03212941599998942 -0.046 -0.121 0.952 -0.74 -5.397 3.298
0.04432108299999982 -0.051 -0.12 0.954 -0.122 -6.046 2.809
0.05136524999998926 -0.035 -0.115 0.966 1.214 -6.985 2.824
0.06347949999999969 -0.022 -0.118 0.962 2.198 -6.015 2.687
0.07062229099999229 -0.017 -0.128 0.965 3.756 -5.313 2.702
0.08318862499999113 -0.01 -0.127 0.971 3.672 -5.221 3.641
0.09052237499999194 0.005 -0.12 0.948 1.84 -5.275 5.038
0.10256270799999356 0.012 -0.116 0.968 0.031 -4.13 7.397
0.11481079099999647 0.025 -0.098 0.962 -0.756 -4.588 4.672
0.12206495799999573 0.042 -0.092 0.972 0.649 -3.611 2.405
0.13433254099999203 0.06 -0.094 0.982 2.565 -2.305 0.466
0.14160720799999638 0.095 -0.095 0.984 5.26 -1.176 1.427
0.15388129099999048 0.083 -0.1 0.997 6.122 -1.069 -2.298
0.16134479099999055 0.092 -0.093 1.006 2.977 1.061 -4.336
0.17321804099999838 0.08 -0.129 1.009 0.046 -0.58 -4.748
0.1804819999999978 0.068 -0.146 1.03 -3.489 -0.763 -8.679
0.1925434999999993 0.078 -0.155 1.078 -6.427 -1.137 -13.618
0.20429716599998926 0.191 -0.244 1.096 -12.275 -1.359 -35.595
0.21141912499999194 0.132 -0.126 1.183 -15.916 -0.595 -29.855
0.22341049999999996 0.113 -0.133 1.196 -12.992 1.351 -37.267
0.23051058299999738 0.066 -0.153 1.195 -12.565 5.481 -30.924
0.2422769999999872 -0.008 -0.188 1.197 -15.58 6.328 -25.504
0.2543203749999918 -0.045 -0.173 1.188 -17.122 7.221 -25.122
0.2614067499999919 -0.055 -0.178 1.204 -15.611 6.71 -20.282
0.273198665999999 -0.077 -0.21 1.251 -12.282 7.443 -19.13
0.28026287499999114 -0.075 -0.223 1.261 -13.893 6.176 -17.511
0.2920788329999908 -0.065 -0.217 1.275 -14.748 5.473 -16.153
0.3041486249999963 -0.099 -0.208 1.282 -18.74 7.908 -17.931
0.31092595799999856 -0.144 -0.205 1.242 -32.985 11.351 -15.481
0.32277733299999056 -0.196 -0.242 1.165 -42.664 14.153 -14.053
0.33457262499999274 -0.233 -0.233 1.114 -40.16 11.611 -11.237
0.3418816659999919 -0.257 -0.243 1.083 -29.313 7.672 -9.817
0.3536443329999912 -0.281 -0.233 1.044 -19.45 4.511 -10.901
0.3607157499999971 -0.276 -0.222 1.026 -14.618 2.588 -10.328
0.3725244159999903 -0.288 -0.218 0.997 -13.374 -1.542 -10.74
0.384496458000001 -0.261 -0.231 0.982 -8.863 -4.504 -6.656
0.3915760829999897 -0.231 -0.219 0.976 -9.26 -9.573 -0.725
0.40336108299999296 -0.212 -0.214 0.973 -12.878 -13.702 1.26
0.410447082999994 -0.193 -0.234 0.991 -15.45 -16.076 2.802
0.4225494579999918 -0.189 -0.258 1.014 -15.924 -17.519 0.145
0.4343071659999964 -0.196 -0.27 1.043 -15.214 -15.198 -1.634
0.441420291 -0.161 -0.274 1.0 -12.45 -14.176 6.786
0.4531927909999922 -0.182 -0.327 0.993 -5.847 -16.473 12.458
0.46025666599999226 -0.187 -0.318 0.976 0.069 -16.557 17.664
0.47228299999999024 -0.17 -0.307 0.979 3.214 -16.84 18.092
0.484324457999989 -0.2 -0.286 0.964 9.389 -15.496 22.969
0.4914119580000005 -0.201 -0.285 0.951 16.481 -15.038 26.145
0.5032135829999902 -0.208 -0.265 0.922 21.099 -16.168 27.397
0.5103823749999918 -0.202 -0.23 0.901 24.618 -16.511 28.435
0.5220877499999972 -0.191 -0.216 0.892 26.046 -19.115 27.389
0.5341946249999978 -0.175 -0.174 0.895 25.618 -21.015 26.916
0.5412067909999934 -0.147 -0.123 0.895 21.878 -22.229 23.366
0.5529707079999895 -0.114 -0.086 0.897 13.267 -23.008 24.092
0.5647391249999885 -0.107 -0.184 0.905 16.969 -22.45 19.237
0.571802415999997 -0.086 -0.285 0.935 25.42 -24.344 19.321
0.5839090829999947 -0.079 -0.3 0.908 31.229 -23.427 21.817
0.5909792499999895 -0.048 -0.27 0.9 30.71 -18.962 27.0
0.6027846249999982 -0.046 -0.267 0.862 29.992 -13.557 36.443
0.6145044159999884 -0.033 -0.214 0.823 23.573 -13.305 42.573
0.6216119579999884 -0.022 -0.162 0.783 21.534 -14.954 45.42
0.6336539160000001 -0.015 -0.135 0.804 13.794 -9.947 45.992
0.640655916 -0.015 -0.024 0.775 7.733 -14.794 43.687
0.6527880829999901 -0.016 -0.029 0.728 2.733 -13.832 36.687
0.6647792499999952 -0.026 -0.106 0.674 4.267 -13.565 26.855
0.6718323329999976 -0.016 -0.204 0.673 7.794 -18.366 25.176
0.683862082999994 0.01 -0.222 0.669 15.092 -23.099 30.13
0.6909667079999906 0.039 -0.194 0.646 19.489 -23.931 40.969
0.7029667499999874 0.064 -0.173 0.629 18.305 -24.916 48.748
0.714727332999999 0.098 -0.117 0.641 17.656 -25.748 57.427
0.7221269159999935 0.158 -0.076 0.646 17.603 -22.45 57.137
0.7338039579999958 0.203 -0.03 0.642 10.84 -24.298 49.374
0.7411476659999892 0.228 0.015 0.66 6.74 -21.649 44.542
0.7532217079999981 0.229 -0.008 0.652 5.611 -20.656 38.405
0.7605017499999889 0.243 -0.027 0.663 2.221 -22.603 32.794
0.7725445409999878 0.247 -0.067 0.674 3.023 -22.878 28.16
0.7845616249999949 0.285 -0.094 0.697 3.122 -22.947 25.939
0.7918833749999976 0.312 -0.108 0.74 2.443 -22.015 26.954
0.8038678749999946 0.337 -0.124 0.765 0.824 -18.634 31.702
0.8109423329999998 0.339 -0.1 0.771 -6.977 -16.42 33.985
0.8227739999999955 0.349 -0.062 0.796 -19.573 -12.481 32.229
0.8347443749999996 0.369 0.009 0.789 -34.214 -11.481 28.351
0.8420480829999946 0.366 0.002 0.812 -43.153 -9.565 21.344
0.8538487909999901 0.369 -0.01 0.828 -45.153 -9.397 14.198
0.8611388329999983 0.374 -0.048 0.851 -41.008 -9.664 7.718
0.8731678749999929 0.379 -0.075 0.9 -38.206 -4.618 4.733
0.8805216250000001 0.374 -0.099 0.916 -35.519 1.756 4.031
0.892488874999998 0.35 -0.118 0.927 -33.565 1.947 4.817
0.9044861249999911 0.35 -0.111 0.934 -37.962 -0.328 6.809
0.9118331250000011 0.333 -0.101 0.939 -42.252 -1.176 5.779
0.9238323329999929 0.333 -0.103 0.964 -40.992 0.473 3.244
0.93112954099999 0.325 -0.1 0.993 -35.366 2.015 -1.321
0.9431967499999985 0.306 -0.109 0.995 -27.481 3.58 -7.16
0.9502888749999983 0.284 -0.143 1.0 -19.26 4.473 -12.695
0.962360290999996 0.265 -0.147 1.007 -14.313 3.847 -17.221
0.9743840829999897 0.266 -0.151 1.002 -11.611 2.305 -20.534
0.9811678330000007 0.255 -0.161 1.038 -11.473 1.458 -23.55
0.9933056249999908 0.267 -0.148 1.07 -8.634 1.779 -25.992
1.0003462909999996 0.271 -0.133 1.115 -5.489 3.046 -27.664
1.0126738329999938 0.251 -0.132 1.138 -0.382 5.115 -28.611
1.0248209999999887 0.232 -0.161 1.116 8.397 5.855 -31.115
1.0318274159999987 0.216 -0.166 1.115 12.832 4.733 -31.71
1.0439493749999968 0.213 -0.168 1.118 15.87 3.679 -31.855
1.050917708 0.225 -0.165 1.125 19.221 0.16 -31.244
1.0629529160000004 0.233 -0.139 1.133 19.649 -1.71 -30.519
1.0696416249999885 0.24 -0.105 1.132 17.305 -3.786 -31.565
1.081872749999988 0.234 -0.095 1.123 12.275 -4.71 -36.176
1.0942227909999929 0.223 -0.067 1.15 7.229 -4.107 -38.748
1.101428999999996 0.209 -0.067 1.154 5.267 -2.977 -43.099
1.1135837499999894 0.208 -0.063 1.177 5.084 0.221 -44.87
1.1206902909999883 0.195 -0.087 1.154 7.748 2.557 -44.374
1.1328913749999998 0.158 -0.104 1.154 7.718 3.908 -44.74
1.1399635410000002 0.139 -0.128 1.148 5.313 6.611 -47.26
1.1523954999999972 0.125 -0.147 1.132 2.634 8.267 -50.893
1.1645764159999885 0.118 -0.156 1.131 0.031 10.008 -52.763
1.1714059999999904 0.113 -0.174 1.137 -2.0 11.649 -51.893
1.1836665829999902 0.09 -0.16 1.146 -4.901 14.519 -49.206
1.1907192909999935 0.065 -0.144 1.134 -9.794 17.557 -47.153
1.2024822079999922 0.049 -0.116 1.115 -15.672 19.45 -45.924
1.2145405829999874 0.029 -0.119 1.114 -20.389 22.046 -45.542
1.2213814159999998 -0.01 -0.124 1.085 -24.359 23.656 -44.626
1.233200165999989 -0.052 -0.117 1.038 -28.908 23.756 -44.282
1.2403731249999908 -0.083 -0.119 1.002 -34.282 22.29 -44.992
1.2518314159999875 -0.116 -0.158 0.969 -35.641 19.351 -46.061
1.2638923330000011 -0.118 -0.225 0.991 -27.221 14.885 -47.038
1.2709799999999944 -0.102 -0.302 1.045 -11.336 13.939 -43.939
1.282813915999995 -0.082 -0.307 1.054 -0.855 16.214 -33.855
1.2945282909999918 -0.089 -0.295 1.028 -5.527 17.885 -28.0
1.30156925 -0.107 -0.336 1.03 -15.145 17.542 -23.336
1.3133838749999995 -0.111 -0.349 1.006 -22.824 16.366 -18.405
1.3204602909999892 -0.125 -0.347 0.968 -29.985 14.26 -14.153
1.3323043329999962 -0.142 -0.361 0.935 -32.115 10.313 -13.481
1.3440479159999938 -0.139 -0.363 0.917 -27.626 6.183 -13.412
1.3511448329999922 -0.124 -0.383 0.921 -17.519 2.58 -13.939
1.3629427079999914 -0.086 -0.389 0.936 -8.542 -0.008 -13.687
1.3691426659999877 -0.073 -0.394 0.927 -3.527 -0.58 -12.489
1.382065790999988 -0.065 -0.405 0.911 -1.794 -1.076 -11.115
1.3938427499999904 -0.055 -0.412 0.91 -2.954 -2.29 -7.252
1.401166540999995 -0.034 -0.397 0.892 -5.954 -2.847 -3.206
1.412952415999996 -0.016 -0.375 0.889 -8.198 -3.878 -2.153
1.4202180829999946 0.015 -0.346 0.897 -5.214 -3.16 -2.786
1.4322660409999912 0.044 -0.331 0.926 0.458 -1.29 -1.458
1.4445209999999946 0.062 -0.292 0.935 2.282 2.771 3.13
1.4520863749999933 0.043 -0.284 0.907 -0.603 5.664 5.496
1.464058874999992 0.033 -0.274 0.886 -3.931 6.183 7.763
1.471581624999999 0.025 -0.25 0.856 -5.885 5.473 7.664
1.4836264579999892 0.036 -0.25 0.87 -3.931 4.107 6.656
1.4911621249999882 0.046 -0.237 0.884 0.427 2.595 5.313
1.5034146659999976 0.069 -0.249 0.927 8.42 2.519 3.435
1.5106759999999895 0.107 -0.243 0.959 13.656 4.092 3.832
1.5229332499999941 0.108 -0.247 0.959 12.313 5.313 4.87
1.5305454999999881 0.107 -0.235 0.964 7.321 7.046 7.328
1.5424859159999897 0.105 -0.208 0.955 -1.084 6.817 9.298
1.5547237079999974 0.09 -0.178 0.961 -7.939 7.13 8.809
1.5620902499999971 0.084 -0.192 0.962 -6.359 6.214 6.824
1.5743187079999927 0.089 -0.204 0.971 -0.786 4.847 5.13
1.5819127079999902 0.087 -0.203 0.958 3.489 5.359 3.145
1.594132375000001 0.102 -0.21 0.982 5.031 5.519 2.481
1.6013349999999917 0.099 -0.222 0.995 4.679 5.985 2.374
1.6136184579999906 0.083 -0.227 0.982 1.939 6.237 3.061
1.6211196659999985 0.077 -0.242 0.98 0.107 5.405 3.863
1.633411040999988 0.073 -0.237 0.996 1.0 4.733 4.87
1.641078874999991 0.072 -0.23 1.001 4.015 5.038 6.809
1.6532440000000008 0.07 -0.213 0.994 4.405 4.336 7.679
1.6604715409999926 0.065 -0.216 0.977 3.901 3.13 8.252
1.6727520409999954 0.073 -0.218 0.975 4.435 1.229 6.863
1.6802938329999932 0.079 -0.215 0.983 4.634 0.29 6.084
1.6924978750000008 0.084 -0.207 0.984 5.023 -0.092 4.351
1.7047265829999958 0.078 -0.201 0.991 6.672 0.42 3.87
1.7121034579999872 0.076 -0.204 1.001 8.244 0.901 4.198
1.7242874999999884 0.053 -0.19 0.985 6.985 0.908 4.649
1.7318059579999954 0.045 -0.194 0.962 6.382 0.458 4.115
1.7440787909999926 0.031 -0.2 0.957 7.13 -1.313 4.252
1.7513814999999937 0.036 -0.194 0.947 9.237 -2.771 3.153
1.7633781659999954 0.047 -0.192 0.95 10.359 -3.794 2.504
1.7707130000000006 0.045 -0.195 0.969 10.389 -4.618 1.58
1.7829898329999878 0.046 -0.205 0.976 9.878 -4.962 1.115
1.7901975409999977 0.052 -0.215 0.976 9.427 -4.733 1.427
1.8024614159999999 0.055 -0.227 0.986 8.427 -3.611 3.053
1.8147530409999888 0.057 -0.22 0.972 6.053 -2.634 4.992
1.821991582999999 0.049 -0.203 0.967 3.366 -1.405 6.198
1.8343161659999936 0.041 -0.198 0.948 2.26 -1.405 6.191
1.84160949999999 0.037 -0.179 0.952 1.84 -2.191 4.947
1.8538844159999996 0.036 -0.167 0.938 1.481 -2.802 3.229
1.8611709579999882 0.037 -0.173 0.935 2.206 -3.573 2.046
1.8734148749999946 0.042 -0.193 0.946 5.214 -4.069 0.977
1.8807220829999949 0.045 -0.193 0.963 7.031 -3.824 1.901
1.8929836249999994 0.064 -0.205 0.985 8.55 -2.779 2.267
1.9002356660000004 0.069 -0.202 0.99 9.053 -0.611 3.634
1.9125183749999906 0.074 -0.197 0.998 8.214 0.817 4.855
1.9247323329999944 0.076 -0.176 0.995 4.756 1.771 3.687
1.9322671659999884 0.078 -0.174 1.001 1.863 3.137 3.389
1.9445257499999968 0.075 -0.165 0.987 0.321 3.305 1.87
1.9517690829999879 0.051 -0.174 0.969 0.237 3.053 0.443
1.9640687079999992 0.041 -0.18 0.97 1.267 1.924 -1.656
1.9713949159999942 0.055 -0.19 0.973 2.695 1.267 -2.275
1.9837432079999928 0.055 -0.198 0.981 4.641 1.924 -1.504
1.9911724999999905 0.071 -0.185 0.996 3.435 3.099 0.473
2.0034262079999934 0.076 -0.197 0.983 1.084 3.992 1.191
