Time AX AY AZ GX GY GZ
0.019753375000000517 -0.023 0.189 0.944 -6.557 12.145 -2.023
0.02678695799999886 -0.064 0.184 0.962 -6.534 10.366 -1.473
0.03896699999999953 -0.092 0.183 0.992 -6.16 4.733 0.313
0.04607083299999992 -0.065 0.162 0.997 -4.061 -0.221 0.878
0.05915545799999933 -0.026 0.154 1.005 -2.382 -2.824 0.374
0.06562341599999932 -0.002 0.175 0.982 -0.962 -1.344 0.427
0.07791633299999923 -0.001 0.195 0.969 -1.0 4.298 0.679
0.09016733300000013 -0.025 0.199 0.961 -2.702 9.092 1.252
0.09739399999999954 -0.048 0.187 0.981 -5.473 9.008 1.969
0.10972241600000032 -0.054 0.176 1.0 -6.42 5.0 2.298
0.1169747499999989 -0.031 0.185 0.99 -6.664 1.252 2.534
0.12981575000000056 0.003 0.18 0.984 -4.237 1.351 2.351
0.1374021249999995 0.008 0.182 0.986 -2.328 4.519 1.756
0.14901837499999893 0.002 0.182 0.981 -0.939 4.794 0.817
0.15638508299999998 -0.002 0.2 0.989 -1.084 3.557 -0.435
0.1684779160000005 -0.012 0.204 0.983 -0.992 2.748 -1.252
0.17570749999999968 -0.014 0.213 0.979 -2.145 1.519 -1.084
0.18784358299999937 -0.011 0.209 0.961 -3.893 1.466 -0.733
0.1999317499999993 -0.003 0.207 0.952 -5.885 2.344 -0.71
0.20718375000000044 -0.016 0.199 0.965 -7.496 4.588 -1.282
0.21925541599999931 -0.026 0.181 0.961 -7.878 4.122 -1.046
0.22651858299999894 -0.044 0.178 0.988 -7.542 2.237 -0.458
0.23878500000000003 -0.016 0.172 0.987 -5.412 1.634 -1.038
0.2460321659999991 -0.015 0.166 1.001 -3.061 3.107 -2.42
0.25812208299999995 -0.022 0.183 0.996 -1.183 3.359 -2.336
0.2703717910000005 -0.032 0.201 0.997 -0.061 3.046 -2.099
0.27767454099999966 -0.016 0.205 0.977 0.29 1.374 -2.321
0.2896368329999994 -0.006 0.214 0.958 -0.557 2.763 -3.374
0.29694362499999905 -0.029 0.218 0.961 -1.313 4.634 -3.366
0.30905870800000024 -0.047 0.21 0.968 -2.298 4.115 -1.954
0.3162607079999997 -0.051 0.202 0.959 -2.198 2.275 -1.008
0.32853262499999936 -0.041 0.204 0.961 -1.267 2.076 -0.672
0.3358326250000001 -0.019 0.202 0.945 -0.824 2.656 -1.26
0.34783462499999906 -0.013 0.215 0.949 -1.13 2.924 -1.489
0.35986504099999905 -0.002 0.218 0.935 -1.702 3.504 -2.641
0.36762850000000036 0.005 0.23 0.937 -3.771 3.481 -3.893
0.3795762499999995 0.004 0.242 0.921 -6.176 5.824 -4.656
0.3867274579999993 -0.036 0.241 0.94 -7.214 7.679 -4.061
0.39907516599999937 -0.059 0.234 0.942 -7.107 6.038 -2.229
0.4063199579999992 -0.073 0.229 0.955 -6.824 1.794 -1.076
0.4182933329999994 -0.058 0.227 0.966 -7.382 -2.191 -0.924
0.4242845830000004 -0.048 0.242 0.952 -8.519 -3.611 -0.336
0.4376092079999996 -0.01 0.235 0.958 -8.71 -1.26 0.168
0.4496404999999992 -0.008 0.217 0.958 -8.527 4.344 -0.481
0.45705004100000046 -0.043 0.221 0.962 -7.847 9.405 -0.13
0.46898012499999986 -0.063 0.22 1.015 -5.214 6.427 -0.481
0.4762947499999992 -0.085 0.225 1.024 -2.977 -0.481 -0.275
0.4886274159999999 -0.086 0.247 1.02 -1.389 -6.466 0.924
0.4956657079999989 -0.043 0.265 0.989 -0.863 -9.618 1.863
0.507702415999999 -0.013 0.289 0.943 -3.084 -7.305 2.664
0.5201312910000002 0.008 0.294 0.906 -6.634 0.924 3.305
0.5274047079999988 -0.0 0.26 0.921 -8.954 9.29 4.298
0.5394223749999991 -0.035 0.23 0.967 -7.977 11.672 4.107
0.5469702909999992 -0.046 0.219 0.996 -5.183 8.252 2.267
0.5589907499999995 -0.103 0.245 0.993 -3.267 3.786 2.45
0.566216665999999 -0.08 0.251 1.006 -3.191 -3.221 4.198
0.5787067080000003 -0.035 0.239 0.984 -4.237 -4.0 2.908
0.5859837080000005 -0.072 0.245 0.97 -4.786 -1.198 4.366
0.5978632079999997 -0.088 0.249 0.974 -3.931 1.634 7.771
0.6098548749999999 -0.064 0.246 0.98 -1.878 -0.145 10.893
0.6171458750000003 -0.007 0.255 0.95 -0.656 0.031 11.718
0.6293984579999989 0.069 0.285 0.902 -0.672 4.0 10.55
0.6366991659999997 0.079 0.303 0.886 -0.733 11.191 8.496
0.649020457999999 0.023 0.281 0.927 -2.191 12.771 5.733
0.6563185409999992 -0.048 0.271 0.976 -2.832 1.954 3.527
0.6685109579999988 -0.011 0.245 0.97 -4.252 -8.489 0.069
0.6755972499999991 0.029 0.254 0.951 -6.405 -10.702 -3.718
0.6887736659999995 0.049 0.279 0.942 -8.763 -1.389 -2.511
0.6999592499999991 0.038 0.269 0.933 -10.557 12.191 -0.84
0.7071764999999992 0.017 0.238 0.954 -10.053 22.458 0.458
0.7194246250000003 -0.052 0.222 0.974 -7.855 26.573 2.824
0.7266048329999997 -0.144 0.203 1.034 -2.336 22.298 5.802
0.7387998749999998 -0.183 0.168 1.077 6.74 2.855 5.977
0.7461014160000001 -0.11 0.171 1.059 14.588 -23.939 3.45
0.7581378749999992 0.024 0.238 0.964 18.282 -37.336 -0.244
0.7701960830000001 0.131 0.318 0.829 15.71 -30.267 -1.511
0.7774089159999988 0.187 0.34 0.775 5.58 -6.427 -3.13
0.789385416 0.173 0.329 0.775 -8.939 18.779 -6.328
0.797796666 0.105 0.315 0.822 -21.679 36.893 -8.748
0.8092316660000005 -0.036 0.25 0.9 -29.931 51.725 -7.786
0.8157291660000006 -0.24 0.143 1.042 -26.427 51.099 -4.053
0.8277638750000005 -0.347 0.023 1.233 -13.924 24.748 -2.901
0.8399873329999998 -0.292 0.007 1.275 2.267 -23.366 -7.0
0.8466956660000005 -0.119 0.105 1.085 14.733 -51.58 -8.702
0.8589767500000001 0.036 0.24 0.908 19.336 -47.351 -6.626
0.8665705829999997 0.123 0.311 0.788 15.824 -22.221 -2.969
0.8787234999999995 0.158 0.318 0.765 4.229 5.939 -1.618
0.885338333 0.124 0.299 0.778 -10.191 28.443 -3.969
0.897509458 -0.01 0.28 0.829 -22.015 41.847 -3.573
0.9098267079999989 -0.119 0.176 0.968 -26.115 43.489 -4.038
0.9168309160000003 -0.206 0.092 1.202 -19.221 11.58 -8.832
0.9285589999999999 -0.179 0.061 1.164 -6.969 -22.916 -11.58
0.9359275 -0.073 0.097 1.074 2.641 -37.382 -13.702
0.9491372079999998 -0.031 0.151 0.966 8.092 -31.221 -11.435
0.9600148329999989 0.001 0.186 0.94 9.275 -17.71 -7.046
0.9672820409999989 0.004 0.182 0.91 5.328 -5.55 -3.435
0.9795082500000003 -0.041 0.189 0.932 -2.298 3.618 -3.29
0.9865637500000002 -0.093 0.174 0.955 -8.069 5.122 -3.26
0.9986489160000005 -0.076 0.129 0.995 -8.382 1.489 -5.748
1.0054882079999992 -0.11 0.122 1.021 -4.863 -4.542 -8.031
1.0176346249999995 -0.105 0.141 1.018 1.328 -12.656 -5.794
1.0298785830000003 -0.058 0.156 0.991 5.626 -18.481 -4.542
1.0368526659999997 -0.018 0.156 0.972 7.328 -18.817 -5.748
1.0491182079999994 0.009 0.161 0.943 4.916 -15.435 -5.595
1.0560326250000003 -0.005 0.163 0.93 0.313 -10.031 -6.145
1.0682910000000003 -0.031 0.158 0.941 -5.244 -8.122 -7.29
1.0752067499999995 -0.039 0.146 0.937 -10.519 -6.679 -8.366
1.0873866249999988 -0.052 0.139 0.96 -14.435 -6.489 -10.351
1.0994459580000004 -0.053 0.131 0.969 -15.206 -5.382 -10.947
1.1062987079999989 -0.056 0.126 0.986 -13.046 -3.817 -9.511
1.118671749999999 -0.065 0.125 1.0 -10.038 -0.954 -7.458
1.1257193749999992 -0.059 0.111 1.001 -6.153 1.229 -4.023
1.1378067909999992 -0.021 0.106 1.059 -2.344 -1.588 -3.824
1.1498799999999996 -0.024 0.108 1.041 0.985 -6.321 -5.55
1.1572235410000005 -0.037 0.098 1.022 -0.115 -9.557 -6.947
1.1692585409999996 -0.037 0.104 0.995 -3.557 -11.015 -8.756
1.176234333 -0.038 0.101 0.978 -8.336 -7.672 -9.809
1.1882960409999992 -0.057 0.109 0.987 -11.42 -3.069 -9.573
1.1941482909999994 -0.059 0.109 1.027 -10.099 -1.885 -7.74
1.2073654999999999 -0.074 0.128 1.006 -7.275 -2.885 -5.084
1.2194900410000002 -0.063 0.133 1.008 -3.74 -2.87 -1.687
1.2310822080000001 -0.017 0.136 0.991 0.42 -4.947 -1.817
1.2391739580000003 -0.01 0.147 0.965 0.702 -5.542 -2.328
1.2460336659999989 -0.019 0.146 0.94 -2.924 -3.229 -2.565
1.258368749999999 0.007 0.098 0.987 -6.916 -2.519 -3.985
1.264299832999999 0.017 0.061 1.003 -10.443 -2.221 -9.252
1.2774041250000003 -0.004 0.085 1.014 -13.153 -3.397 -11.977
1.289195124999999 -0.022 0.097 1.022 -14.115 0.031 -12.916
1.2965216660000003 -0.054 0.105 1.032 -12.695 2.542 -11.473
1.3085947079999993 -0.083 0.11 1.045 -9.076 2.214 -7.817
1.3158932080000003 -0.066 0.106 1.035 -4.015 -2.298 -3.748
1.327962124999999 -0.013 0.118 0.991 0.015 -6.458 -3.099
1.3398933329999991 0.007 0.127 0.959 -0.985 -5.031 -4.084
1.3471712910000004 0.003 0.115 0.943 -4.977 -2.313 -4.527
1.3594299579999998 -0.005 0.105 0.966 -9.366 0.008 -5.824
1.366384666 -0.03 0.117 0.986 -13.214 -0.328 -7.84
1.3784342499999998 -0.046 0.128 1.004 -14.794 -1.87 -7.359
1.3853235000000002 -0.019 0.097 1.027 -13.221 -1.221 -7.947
1.397937624999999 -0.03 0.099 1.053 -10.206 -2.74 -6.863
1.4098937500000002 -0.005 0.073 1.05 -5.412 -1.954 -4.618
1.4171018330000003 0.005 0.065 1.059 -1.084 -3.649 -5.55
1.429033166 0.024 0.079 1.049 0.855 -6.969 -6.443
1.4363023330000004 0.077 0.096 1.005 -0.084 -7.466 -9.008
1.4484604999999995 0.096 0.124 0.961 -5.176 -0.519 -12.84
1.4556049580000003 0.082 0.122 0.944 -10.397 7.947 -14.817
1.4676925 0.105 0.066 0.949 -11.901 15.168 -19.687
1.4794595409999989 0.038 0.084 0.963 -12.351 17.397 -23.443
1.4866005409999996 -0.026 0.082 0.973 -11.176 21.13 -21.817
1.4987211249999994 -0.034 0.045 1.059 -5.71 16.573 -23.588
1.505935082999999 -0.047 0.049 1.049 1.756 5.695 -25.626
1.5178835409999998 -0.052 0.099 1.034 6.351 -3.809 -24.344
1.5300795829999991 -0.021 0.13 0.939 7.244 -4.405 -20.191
1.5371478329999988 -0.021 0.16 0.877 2.252 3.695 -16.397
1.5491934579999995 -0.04 0.145 0.904 -5.885 10.939 -13.618
1.5563358750000003 -0.066 0.098 0.971 -13.069 6.359 -12.466
1.568028666 -0.065 0.058 0.999 -17.603 -1.374 -13.061
1.5801626249999998 -0.042 0.03 1.015 -18.26 -6.382 -16.0
1.5872130000000002 -0.018 0.006 1.001 -14.863 -2.985 -19.13
1.598981083 -0.044 0.036 1.005 -10.198 1.603 -20.115
1.606599749999999 -0.071 0.072 1.001 -6.107 1.908 -18.145
1.618417291 -0.104 0.13 1.02 -4.947 -3.298 -12.443
1.624234207999999 -0.055 0.12 0.948 -6.176 -3.641 -5.603
1.6374076659999997 -0.047 0.099 0.951 -8.817 -0.183 -6.405
1.649417583 -0.081 0.102 0.993 -11.588 -4.321 -3.954
1.6565021659999992 -0.056 0.057 1.005 -12.305 -6.275 -3.053
1.668575624999999 -0.05 0.015 1.034 -9.611 -6.374 -6.519
1.6758608749999997 -0.075 0.018 1.042 -5.542 -7.191 -9.672
1.6878687499999998 -0.114 0.063 1.031 -1.573 -11.397 -7.046
1.6996558329999996 -0.101 0.094 0.997 -0.489 -14.557 -3.076
1.706905665999999 -0.043 0.096 0.982 -1.786 -12.534 -1.359
1.7190002910000004 -0.005 0.088 0.977 -4.435 -10.084 -2.641
1.7262839579999998 0.01 0.094 0.999 -6.557 -7.763 -4.588
1.7383624579999992 0.014 0.083 1.003 -8.008 -7.603 -6.878
1.745601624999999 0.011 0.076 1.032 -9.397 -8.046 -9.656
1.7578569579999996 0.005 0.052 1.033 -8.885 -7.336 -12.473
1.769400333 -0.03 0.046 1.018 -8.015 -4.962 -12.198
1.7767539580000005 -0.074 0.052 1.007 -7.664 0.397 -7.656
1.7890121249999993 -0.09 0.047 1.001 -8.015 6.153 -0.908
1.7962640000000007 -0.097 0.038 1.024 -8.435 8.42 3.313
1.8086252079999987 -0.078 0.012 1.068 -6.45 4.58 2.557
1.8153374579999983 -0.074 0.002 1.074 -3.763 -3.107 -0.992
1.827943416 -0.057 0.017 1.086 -0.282 -11.389 -4.405
1.8397724999999987 -0.035 0.049 1.055 2.718 -17.305 -4.427
1.847108249999998 0.002 0.055 0.998 4.198 -16.443 -2.634
1.859389415999999 0.025 0.072 0.967 4.847 -10.122 0.076
1.866539791000001 0.063 0.052 0.975 4.45 -4.374 0.847
1.8787744999999987 0.082 0.028 0.953 2.977 -0.664 -1.55
1.8860588329999999 0.049 0.038 0.942 -0.901 1.977 -3.809
1.89841925 0.058 0.038 0.978 -4.931 0.84 -5.489
1.905603082999999 0.083 0.011 0.993 -7.282 -2.405 -9.618
1.9176602910000007 0.079 0.005 0.982 -8.641 -1.588 -14.603
1.9296332079999985 0.031 0.014 1.003 -7.809 0.221 -15.244
1.9370410410000005 -0.003 -0.001 1.022 -4.435 0.809 -11.336
1.9493961249999998 -0.029 -0.008 1.03 -0.878 0.008 -7.176
1.956109583 -0.038 -0.007 1.028 1.611 -2.756 -4.458
1.9680766659999982 -0.028 -0.001 1.03 1.206 -8.16 -4.099
1.9801417500000014 -0.015 0.011 1.007 -0.763 -15.328 -4.115
1.9872953749999986 0.084 -0.001 1.008 -1.534 -19.855 -7.244
1.9992713749999993 0.178 -0.044 0.989 -0.763 -16.985 -15.252
2.0063069999999996 0.188 -0.031 0.942 -1.84 -7.145 -22.924
2.018352 0.132 0.034 0.952 -5.092 4.084 -23.015
2.0255615829999982 0.077 0.045 1.009 -6.443 10.107 -19.748
2.037613915999998 0.009 -0.012 1.074 -6.519 9.55 -18.351
2.049929541000001 -0.047 -0.047 1.125 -5.076 0.099 -17.794
2.0566027909999995 -0.068 -0.042 1.131 -2.771 -11.74 -15.985
2.068264666000001 -0.072 -0.033 1.087 -0.878 -15.893 -13.664
2.0744937499999985 -0.031 -0.047 1.071 2.863 -14.534 -13.313
2.087475874999999 0.022 -0.042 1.057 8.374 -15.443 -16.863
2.099397290999999 0.032 -0.004 1.016 10.244 -15.435 -16.756
2.106524540999999 0.132 0.003 0.985 12.771 -14.412 -16.58
2.118311500000001 0.171 -0.008 0.917 12.412 -6.305 -20.107
2.125841915999999 0.099 0.054 0.893 4.786 3.115 -20.382
2.1378973750000014 0.07 0.069 0.955 -3.702 2.954 -18.824
2.1501994159999995 0.023 0.04 0.997 -10.458 -0.885 -21.282
2.1567500829999986 -0.003 -0.04 1.041 -12.885 -3.672 -27.405
2.1685401659999997 -0.052 -0.055 1.091 -11.366 -6.076 -31.015
2.1756171659999985 -0.046 -0.047 1.118 -3.321 -11.13 -27.389
2.187684000000001 0.001 -0.043 1.063 5.168 -11.947 -22.916
2.1996692079999995 0.007 -0.008 1.017 8.656 -4.466 -19.573
2.2069603330000014 0.021 0.028 1.058 9.992 -2.954 -16.87
2.2190063749999993 0.015 0.049 1.008 6.328 -8.176 -15.321
2.2260522909999985 -0.025 0.085 0.935 -2.382 -8.122 -11.122
2.238425082999999 0.028 0.038 0.955 -4.794 -3.481 -9.023
2.250053125000001 0.04 -0.026 0.943 -3.397 -3.031 -14.55
2.2571954159999983 -0.028 0.013 0.995 -2.443 -10.214 -13.542
2.2692531659999986 0.024 -0.02 1.046 -1.481 -25.344 -12.794
2.276309790999999 0.118 -0.096 1.045 -2.427 -35.863 -24.237
2.2880625829999985 0.135 -0.06 1.013 -4.244 -37.305 -29.878
2.299912082999999 0.206 -0.024 0.955 -4.336 -26.115 -29.244
2.3072299160000007 0.17 0.003 0.853 -5.954 0.084 -28.237
2.3192077500000003 0.049 0.04 0.835 -12.634 23.794 -20.443
2.326249624999999 -0.003 0.023 0.904 -17.756 32.863 -6.626
2.3384737499999986 0.111 -0.176 0.951 -10.466 37.74 -12.664
2.3501264579999983 -0.03 -0.176 0.97 -8.557 34.992 -32.641
2.357199208000001 -0.202 -0.019 1.036 -11.725 20.42 -27.779
2.3692374580000006 -0.117 -0.005 1.03 -9.374 0.191 -16.802
2.376047665999998 -0.019 -0.059 0.95 -6.893 -2.817 -16.176
2.3880443749999998 0.018 -0.049 0.912 -3.954 9.786 -13.107
2.4000607910000014 -0.01 -0.012 0.918 -4.328 16.122 -6.183
2.407434791 -0.032 -0.007 0.926 -7.405 17.733 1.947
2.4191490410000007 -0.0 -0.035 0.991 -10.641 10.076 1.176
2.426502708000001 0.023 -0.051 1.017 -12.26 -0.664 -3.145
2.4382902500000014 0.109 -0.078 1.036 -10.015 -12.221 -6.206
2.445617375000001 0.171 -0.064 0.93 -7.038 -4.374 -9.954
2.4573602500000007 0.161 -0.043 0.889 -2.26 15.939 -11.435
2.4698090830000012 0.05 0.032 0.888 -3.511 28.359 -6.458
2.477148624999998 -0.031 0.086 0.952 -7.076 32.046 1.412
2.4891115 -0.047 0.017 1.046 -9.237 18.267 4.198
2.4963233749999993 -0.063 -0.004 1.081 -13.038 2.55 2.58
2.5080994160000003 -0.028 -0.005 1.083 -13.0 -8.534 -1.0
