Time AX AY AZ GX GY GZ
0.019825333001790568 0.051 0.069 1.156 -0.26 20.305 -42.847
0.026513458011322655 0.051 0.076 1.188 -0.038 19.489 -42.855
0.038615249999566004 0.035 0.085 1.181 -0.427 19.16 -42.763
0.05107158300234005 0.03 0.09 1.188 -2.542 18.107 -43.198
0.058235375006916 0.034 0.08 1.189 -3.748 16.679 -42.626
0.07011491700541228 0.053 0.07 1.17 -3.374 15.786 -42.206
0.07742804200097453 0.052 0.07 1.175 -2.458 16.641 -41.672
0.08954312501009554 0.05 0.071 1.171 -1.0 17.0 -41.809
0.095323166999151 0.06 0.07 1.168 -0.137 18.718 -42.802
0.1088222500111442 0.048 0.072 1.178 -0.802 20.962 -44.053
0.12067258299794048 0.045 0.086 1.187 -1.725 22.031 -44.809
0.12773725000442937 0.048 0.08 1.182 -3.038 22.45 -45.053
0.14009995800734032 0.048 0.077 1.188 -3.481 22.519 -44.87
0.14714979199925438 0.04 0.073 1.184 -3.74 21.405 -43.824
0.15931724999973085 0.027 0.073 1.196 -3.031 18.389 -42.641
0.17148641700623557 0.023 0.064 1.191 -2.359 14.389 -40.763
0.17842900000687223 0.032 0.068 1.184 -1.878 13.313 -41.221
0.1903940420015715 0.04 0.074 1.181 -1.679 14.679 -43.13
0.1975402079988271 0.059 0.077 1.177 -2.664 18.267 -44.023
0.20968229199934285 0.076 0.072 1.167 -2.977 21.282 -44.664
0.21729891700670123 0.067 0.075 1.175 -3.038 23.29 -44.397
0.22907204199873377 0.047 0.083 1.174 -3.405 22.534 -43.137
0.24110725001082756 0.033 0.076 1.192 -2.977 20.443 -42.344
0.2481775420019403 0.03 0.076 1.178 -2.557 18.55 -42.321
0.2603379170031985 0.042 0.074 1.179 -2.74 17.779 -42.366
0.26725175000319723 0.045 0.075 1.174 -3.397 17.496 -42.26
0.2794445830077166 0.048 0.074 1.167 -3.863 18.16 -42.282
0.28655600000638515 0.045 0.069 1.168 -3.802 18.435 -43.168
0.2988837080047233 0.065 0.069 1.174 -3.489 19.45 -44.244
0.31099154200637713 0.081 0.073 1.167 -3.511 21.137 -45.412
0.3178326250053942 0.074 0.074 1.178 -3.466 21.443 -45.389
0.33003987499978393 0.058 0.077 1.192 -2.893 18.771 -44.511
0.3371926250110846 0.074 0.081 1.186 -2.565 17.687 -43.641
0.3492501250002533 0.086 0.088 1.169 -2.435 17.405 -43.084
0.36135787500825245 0.094 0.084 1.171 -3.038 17.557 -42.725
0.36852683300094213 0.08 0.076 1.175 -3.748 17.679 -42.809
0.3807285420043627 0.083 0.065 1.183 -4.634 17.511 -43.748
0.387588167010108 0.109 0.064 1.167 -5.344 16.656 -44.321
0.3997010000020964 0.135 0.071 1.164 -5.237 17.191 -45.076
0.4069691250042524 0.15 0.074 1.159 -5.58 19.229 -46.046
0.41895975000807084 0.147 0.075 1.167 -6.168 20.954 -46.901
0.4312735830026213 0.129 0.078 1.163 -6.626 21.344 -47.374
0.43838225000945386 0.127 0.067 1.174 -6.237 19.779 -47.122
0.45041641700663604 0.115 0.063 1.171 -5.473 17.656 -46.954
0.4573454580095131 0.117 0.057 1.162 -5.718 17.611 -47.588
0.4694800420111278 0.113 0.048 1.174 -6.046 17.847 -49.359
0.47660345800977666 0.123 0.047 1.158 -5.901 18.435 -49.802
0.4889116670092335 0.13 0.052 1.157 -5.939 19.687 -50.565
0.5010970000002999 0.122 0.06 1.17 -6.046 19.145 -50.26
0.5081657080008881 0.119 0.061 1.177 -6.473 17.183 -48.534
0.520213000010699 0.146 0.055 1.167 -6.313 16.618 -47.901
0.5269576670107199 0.145 0.053 1.156 -6.389 17.71 -48.168
0.5392915420088684 0.12 0.042 1.152 -5.969 16.542 -47.878
0.551428417005809 0.134 0.036 1.138 -5.542 16.031 -46.664
0.5586475000018254 0.154 0.032 1.121 -4.321 17.084 -45.84
0.5706752080004662 0.144 0.042 1.115 -2.511 18.0 -44.427
0.5780089170002611 0.124 0.048 1.147 -0.664 16.672 -42.069
0.5897496670077089 0.12 0.046 1.138 1.252 15.435 -40.748
0.5971267080021789 0.095 0.066 1.142 1.26 14.336 -40.359
0.6093602080072742 0.106 0.087 1.194 -2.626 13.916 -39.756
0.6214032920106547 0.112 0.07 1.19 -3.351 16.412 -41.527
0.6286491670034593 0.087 0.087 1.183 -5.504 16.71 -40.817
0.6406440830032807 0.121 0.076 1.178 -7.229 17.588 -39.817
0.6475604169972939 0.129 0.059 1.157 -7.916 21.015 -40.359
0.6597801669995533 0.096 0.05 1.166 -8.252 23.771 -40.344
0.666899417003151 0.061 0.04 1.161 -6.473 22.45 -39.122
0.679036833011196 0.04 0.032 1.167 -3.298 17.702 -36.145
0.6913245000032475 0.047 0.03 1.153 0.153 14.198 -33.298
0.6985932079987833 0.061 0.034 1.16 2.847 11.832 -32.183
0.7106392080022488 0.08 0.05 1.149 4.603 12.931 -32.061
0.7178400830016471 0.078 0.069 1.17 3.275 16.328 -34.84
0.7300930830097059 0.079 0.081 1.175 0.55 20.962 -37.771
0.7372513330046786 0.065 0.088 1.206 -2.702 21.687 -39.115
0.7493476250092499 0.057 0.104 1.206 -5.618 20.282 -38.122
0.7614367500063963 0.09 0.066 1.193 -5.664 19.74 -36.092
0.7682487920101266 0.058 0.072 1.204 -4.672 18.321 -34.053
0.7807810000085738 0.039 0.07 1.198 -3.672 13.931 -30.649
0.7877192080050008 0.073 0.062 1.189 -2.496 12.954 -29.29
0.7997891249979148 0.067 0.078 1.183 -3.244 14.733 -29.71
0.8069278750044759 0.072 0.08 1.189 -4.771 18.756 -32.061
0.8189185829978669 0.047 0.074 1.205 -6.023 21.046 -34.824
0.8310415830055717 0.034 0.055 1.22 -5.679 20.992 -36.878
0.8380951669969363 0.052 0.049 1.207 -4.069 20.176 -37.71
0.8501791669987142 0.046 0.037 1.182 -1.405 19.176 -37.687
0.8573421250039246 0.023 0.045 1.185 0.008 16.145 -36.282
0.8698555000009947 0.023 0.061 1.208 0.473 12.038 -34.366
0.8765283329994418 0.053 0.068 1.198 -0.466 10.832 -33.672
0.8887742500082823 0.084 0.079 1.19 -2.275 12.336 -33.618
0.9009402500087162 0.088 0.082 1.194 -4.901 14.0 -33.267
0.9081996250024531 0.099 0.074 1.206 -7.076 14.55 -30.305
0.9202355419984087 0.084 0.048 1.191 -7.427 12.809 -29.145
0.9274764580040937 0.039 0.037 1.193 -5.794 11.015 -30.855
0.9395918750087731 0.034 0.051 1.179 -3.618 10.718 -34.282
0.9453301670000656 0.062 0.049 1.155 -2.504 13.695 -38.26
0.9585531250049826 0.078 0.044 1.144 -0.985 16.916 -40.466
0.9707420000049751 0.086 0.055 1.145 -0.038 17.939 -38.58
0.9779201250057667 0.098 0.047 1.157 0.137 17.16 -35.527
0.9902164579980308 0.112 0.056 1.167 2.061 16.893 -31.809
0.9973484170041047 0.09 0.057 1.169 1.908 14.924 -30.427
1.0095540420006728 0.059 0.063 1.165 1.092 15.511 -32.878
1.0171242080105003 0.065 0.067 1.161 -0.458 18.489 -36.893
1.0288231250015087 0.063 0.067 1.171 -2.588 19.985 -39.664
1.0409998329996597 0.077 0.067 1.182 -4.725 21.191 -40.359
1.0478853750100825 0.086 0.06 1.182 -5.664 21.672 -39.756
1.0600003330036998 0.092 0.062 1.182 -5.504 19.794 -36.893
1.0671646670089103 0.095 0.063 1.188 -4.832 18.427 -34.183
1.0792646250047255 0.093 0.063 1.184 -4.107 18.725 -33.13
1.0914748750074068 0.101 0.066 1.171 -3.71 18.511 -31.58
1.0986303329991642 0.099 0.05 1.156 -2.58 17.733 -31.031
1.1106339170073625 0.105 0.048 1.158 -1.473 16.939 -32.13
1.1175795830058632 0.089 0.051 1.158 -0.656 16.954 -33.107
1.1297860000049695 0.096 0.051 1.148 -0.542 17.084 -34.786
1.1369402920099674 0.111 0.062 1.155 -0.176 18.061 -35.634
1.148997791999136 0.107 0.059 1.151 0.267 19.641 -36.435
1.1613597079995088 0.101 0.063 1.155 0.0 20.779 -37.489
1.1682317500089994 0.084 0.069 1.174 -0.481 19.985 -37.924
1.1804346249991795 0.098 0.064 1.183 -0.313 17.687 -37.198
1.1876914580061566 0.109 0.07 1.171 -0.519 15.664 -36.298
1.199756250003702 0.116 0.065 1.157 -0.206 16.977 -37.038
1.2067698330065468 0.089 0.082 1.167 -0.687 16.214 -37.015
1.2189681669988204 0.098 0.084 1.17 -0.824 15.496 -36.641
1.231281875006971 0.105 0.076 1.177 -1.626 15.427 -36.267
1.238074292006786 0.122 0.06 1.178 -1.527 15.702 -35.313
1.2503406670002732 0.124 0.064 1.16 -1.046 14.863 -34.237
1.257326708000619 0.136 0.059 1.144 -0.794 15.687 -32.939
1.269694458009326 0.127 0.057 1.154 -0.084 16.695 -31.794
1.2765490419988055 0.12 0.067 1.144 0.336 17.779 -30.145
1.288793750005425 0.111 0.068 1.159 -0.565 18.336 -29.206
1.3010942920082016 0.079 0.053 1.165 -1.084 18.321 -30.718
1.3079258330108132 0.082 0.058 1.157 -2.611 17.939 -32.924
1.3204430420009885 0.084 0.045 1.154 -4.13 18.305 -35.618
1.3270477080077399 0.093 0.046 1.147 -4.656 19.656 -37.626
1.3393655420077266 0.095 0.03 1.135 -3.489 19.947 -38.015
1.35135095800797 0.107 0.045 1.142 -1.519 19.229 -36.611
1.3583528750023106 0.116 0.051 1.142 0.87 19.252 -34.573
1.3710156669985736 0.108 0.073 1.153 2.16 17.649 -32.275
1.378070208011195 0.117 0.079 1.17 2.916 17.321 -30.634
1.3901761669985717 0.13 0.103 1.175 1.863 17.267 -29.137
1.397375500004273 0.123 0.098 1.192 0.031 16.031 -27.908
1.4094997920037713 0.146 0.088 1.182 -2.176 17.725 -26.893
1.416821417005849 0.141 0.069 1.167 -2.565 20.924 -27.466
1.4287329580110963 0.102 0.066 1.161 -3.702 22.641 -28.611
1.4409696670045378 0.094 0.052 1.168 -2.137 23.267 -28.565
1.4479309580055997 0.08 0.039 1.156 -0.473 22.702 -29.29
1.460309000001871 0.074 0.039 1.158 0.107 21.29 -30.618
1.467433208003058 0.074 0.036 1.167 0.84 21.412 -32.26
1.4794505419995403 0.096 0.032 1.156 0.298 21.939 -33.26
1.486675207997905 0.108 0.044 1.148 -2.321 24.641 -33.924
1.4987771250016522 0.088 0.046 1.157 -4.542 26.328 -33.962
1.5110557500011055 0.099 0.06 1.158 -6.71 27.305 -32.626
1.5177475420059636 0.08 0.059 1.196 -7.924 25.031 -33.092
1.5301125830010278 0.074 0.058 1.187 -7.725 23.198 -32.672
1.5370405830035452 0.095 0.039 1.179 -6.45 22.214 -34.87
1.5492794169986155 0.092 0.042 1.155 -4.863 23.817 -36.779
1.5614556670043385 0.116 0.043 1.142 -3.908 24.397 -36.534
1.5685922499978915 0.115 0.033 1.133 -1.55 25.137 -36.496
1.5807286250055768 0.107 0.038 1.115 0.87 26.336 -35.672
1.5878957920067478 0.09 0.039 1.138 1.901 25.107 -34.557
1.59999925000011 0.083 0.039 1.172 0.885 22.031 -32.397
1.607092999998713 0.092 0.061 1.159 -0.634 18.679 -29.122
1.6193852920114296 0.136 0.059 1.125 -3.748 20.985 -27.176
1.6313619170105085 0.135 0.049 1.164 -6.626 27.435 -27.702
1.638470125006279 0.103 0.059 1.184 -8.366 30.817 -27.832
1.6507789169991156 0.073 0.034 1.208 -5.58 30.351 -27.313
1.6577587500069058 0.042 0.034 1.178 -2.649 28.71 -28.29
1.6697203750081826 0.038 0.036 1.185 -0.305 26.374 -28.771
1.6768631669983733 0.03 0.04 1.164 1.16 23.527 -29.16
1.6892188750061905 0.036 0.036 1.166 2.71 20.802 -30.55
1.7014091669989284 0.029 0.039 1.173 3.405 19.29 -31.84
1.7085402500088094 0.059 0.049 1.177 2.664 18.015 -32.176
1.7207052080048015 0.067 0.048 1.168 1.786 17.382 -32.076
1.727830083007575 0.088 0.053 1.177 1.435 17.672 -31.153
1.7402531249972526 0.085 0.052 1.181 1.71 18.511 -29.908
1.7473168750002515 0.061 0.052 1.183 1.176 18.931 -30.122
1.7594366670091404 0.05 0.039 1.189 1.244 20.176 -31.382
1.7664701250032522 0.062 0.043 1.175 2.588 19.527 -31.298
1.7787888750026468 0.057 0.034 1.148 4.336 19.374 -31.695
1.7911009170056786 0.062 0.042 1.157 6.962 19.847 -32.809
1.7979522079986054 0.056 0.059 1.155 7.824 19.137 -33.809
1.810216042009415 0.045 0.07 1.18 7.023 18.74 -34.641
1.8174188749981113 0.056 0.07 1.181 6.092 17.756 -35.076
1.829699708003318 0.067 0.074 1.195 5.481 16.137 -33.901
1.836537417009822 0.094 0.08 1.175 4.45 16.534 -33.336
1.8490702499984764 0.1 0.091 1.173 3.466 18.496 -33.214
1.8613871249981457 0.112 0.108 1.182 1.435 20.13 -32.282
1.8683329170016805 0.118 0.097 1.179 1.092 21.679 -31.771
1.8806055830063997 0.108 0.095 1.175 0.237 23.076 -31.405
1.8876457919977838 0.096 0.083 1.181 0.153 22.626 -30.885
1.9001618330075871 0.08 0.081 1.174 0.725 21.496 -30.756
1.9070847499970114 0.083 0.076 1.162 1.969 20.168 -30.58
1.9194038330024341 0.094 0.067 1.156 3.954 20.573 -30.725
1.926412375003565 0.083 0.081 1.158 5.145 21.008 -31.023
1.938687250003568 0.099 0.082 1.174 5.313 22.603 -30.748
1.9510335000086343 0.107 0.084 1.171 6.008 22.153 -29.13
1.9581559170037508 0.124 0.099 1.168 5.267 22.809 -27.092
1.970408833003603 0.101 0.093 1.183 3.802 24.588 -27.275
1.9773818329995265 0.079 0.106 1.202 1.038 25.0 -27.412
1.9896778330003144 0.073 0.108 1.2 -1.489 22.985 -26.863
1.9968965000007302 0.093 0.089 1.176 -2.885 22.779 -26.237
2.009074125002371 0.097 0.082 1.165 -3.527 23.954 -25.985
2.0211787080042996 0.084 0.071 1.174 -4.626 23.939 -25.817
2.028171541998745 0.088 0.074 1.154 -6.809 24.725 -26.924
2.0402533750020666 0.084 0.074 1.152 -9.756 26.168 -29.015
2.047417833004147 0.071 0.064 1.171 -9.931 25.282 -30.656
2.059458125004312 0.093 0.067 1.169 -7.718 25.321 -29.611
2.066427042009309 0.094 0.079 1.181 -3.336 25.237 -28.725
2.078782292010146 0.087 0.085 1.182 1.855 23.962 -27.748
2.0912265829974785 0.086 0.088 1.187 5.687 22.221 -26.489
2.0981604999979027 0.089 0.113 1.185 6.718 22.107 -26.74
2.1105019579990767 0.094 0.134 1.202 4.893 22.031 -26.435
2.117813542005024 0.088 0.133 1.212 1.534 20.565 -25.992
2.129817749999347 0.103 0.138 1.207 -2.0 20.748 -25.687
2.1367578330100514 0.1 0.137 1.2 -5.779 23.45 -26.412
2.1487523750110995 0.091 0.113 1.214 -6.916 24.87 -27.55
2.160932667000452 0.086 0.11 1.211 -7.336 25.282 -28.29
2.16811008300283 0.085 0.096 1.192 -7.534 26.214 -28.756
2.1803027920104796 0.09 0.074 1.203 -7.634 26.107 -29.221
2.1873585830035154 0.089 0.048 1.174 -6.435 23.962 -27.802
2.1995128330017906 0.107 0.038 1.162 -4.611 21.824 -26.634
2.2053561250068014 0.103 0.059 1.158 -2.038 20.718 -25.214
2.2188582079979824 0.078 0.063 1.166 0.885 19.252 -24.687
2.230990916999872 0.067 0.08 1.164 4.298 16.695 -23.794
2.238155042010476 0.066 0.09 1.159 8.603 13.16 -21.954
2.250237041997025 0.054 0.085 1.163 12.198 7.443 -19.481
2.257568250002805 0.043 0.08 1.168 16.542 -0.565 -17.13
2.2695065419975435 0.064 0.094 1.165 19.405 -5.366 -16.557
2.276636458002031 0.079 0.12 1.167 18.55 -3.611 -20.122
2.288808416997199 0.121 0.156 1.164 13.885 3.855 -24.878
2.3009767080075108 0.145 0.165 1.17 7.427 12.672 -27.366
2.3079220000072382 0.141 0.162 1.167 1.29 19.718 -27.443
2.3200992080091964 0.111 0.136 1.193 -3.824 23.458 -26.718
2.3271668329980457 0.077 0.12 1.174 -6.313 22.275 -24.618
2.33945629200025 0.071 0.099 1.144 -7.328 18.137 -23.702
2.3467546669999138 0.094 0.07 1.129 -6.641 17.687 -23.802
2.3588207499997225 0.102 0.058 1.116 -4.756 18.29 -24.565
2.371038083001622 0.078 0.05 1.112 -1.679 17.031 -24.58
2.378147458002786 0.07 0.053 1.131 0.504 14.908 -25.863
2.390253917008522 0.08 0.067 1.164 2.42 13.985 -27.183
2.397340042007272 0.091 0.086 1.139 3.939 13.618 -28.794
2.409404750011163 0.111 0.085 1.127 3.565 16.893 -30.038
2.416924667006242 0.113 0.105 1.127 1.008 19.87 -31.214
2.428678750002291 0.083 0.103 1.168 -2.405 20.099 -30.947
2.4410719580046134 0.075 0.089 1.185 -4.038 17.824 -30.298
2.448094167004456 0.099 0.101 1.175 -5.389 18.359 -30.053
2.4602581250073854 0.103 0.086 1.169 -6.092 20.015 -29.618
2.467498625002918 0.121 0.077 1.166 -4.687 21.481 -28.649
2.479550375006511 0.101 0.076 1.168 -3.626 22.534 -27.855
2.4853707919974113 0.062 0.072 1.184 -3.244 18.771 -27.16
2.4986106249998556 0.068 0.058 1.185 -0.458 13.756 -25.321
2.510922417000984 0.1 0.055 1.15 3.0 12.374 -23.878
2.5182337919977726 0.088 0.063 1.124 5.252 12.023 -24.588
2.5303759170055855 0.08 0.09 1.147 6.168 13.527 -25.527
