Time AX AY AZ GX GY GZ
0.019826457995804958 0.049 0.074 1.182 -5.924 25.496 -47.214
0.031926625000778586 0.043 0.064 1.175 -5.71 26.13 -47.771
0.03890633300761692 0.013 0.055 1.18 -4.656 23.985 -47.672
0.05109433300094679 -0.013 0.049 1.179 -2.244 19.435 -46.344
0.05819533299654722 0.014 0.054 1.169 -0.84 14.672 -44.695
0.0701455829985207 0.036 0.073 1.174 -1.542 12.847 -43.267
0.08259162500326056 0.072 0.069 1.166 -2.183 14.397 -43.504
0.08918462500150781 0.064 0.064 1.169 -2.45 15.916 -43.565
0.1014705420093378 0.049 0.067 1.156 -2.466 17.237 -43.969
0.1088299170078244 0.038 0.056 1.164 -1.618 17.427 -44.336
0.12089874999946915 0.023 0.065 1.168 -1.061 16.191 -43.504
0.13302487500186544 0.045 0.075 1.159 -1.191 16.137 -43.351
0.14009191699733492 0.069 0.076 1.164 -2.351 16.931 -43.947
0.15241700000478886 0.076 0.058 1.164 -2.511 18.718 -43.954
0.15906091700890101 0.084 0.057 1.145 -1.74 21.702 -45.366
0.17132712500460912 0.063 0.058 1.159 -0.779 24.237 -46.244
0.178097500000149 0.047 0.07 1.176 -0.183 24.74 -46.435
0.1904811249987688 0.028 0.092 1.191 -1.74 22.107 -45.534
0.20289908300037496 0.033 0.087 1.209 -2.771 17.519 -43.42
0.20999816700350493 0.06 0.082 1.214 -3.061 14.794 -41.611
0.2220156249968568 0.088 0.087 1.18 -3.832 16.0 -41.061
0.22884933299792465 0.109 0.074 1.168 -3.992 21.595 -42.244
0.241232125001261 0.078 0.077 1.172 -3.45 25.672 -43.099
0.248300332998042 0.03 0.077 1.191 -3.511 24.122 -43.053
0.2604541250038892 0.015 0.077 1.2 -3.748 19.901 -42.748
0.2726666250091512 0.023 0.078 1.2 -3.58 15.794 -41.855
0.2797750419995282 0.057 0.073 1.184 -4.053 14.435 -41.832
0.2917286250012694 0.069 0.062 1.181 -4.641 15.924 -42.053
0.2986481249972712 0.057 0.071 1.172 -4.916 17.244 -41.992
0.3110729170002742 0.06 0.064 1.157 -5.45 18.84 -41.649
0.3230294170061825 0.048 0.057 1.16 -6.198 21.718 -41.634
0.3301537920051487 0.024 0.049 1.171 -6.145 22.534 -42.252
0.34238933300366625 0.017 0.046 1.168 -6.023 21.45 -42.458
0.3496371250075754 0.017 0.038 1.154 -5.099 21.206 -42.832
0.3615627079998376 0.035 0.032 1.157 -2.878 21.282 -43.008
0.36854358299751766 0.029 0.045 1.15 -2.153 20.206 -43.252
0.38071587499871384 0.012 0.061 1.173 -1.611 18.55 -43.313
0.3930297920014709 0.021 0.067 1.168 -1.756 18.931 -44.198
0.40015191699785646 0.016 0.079 1.17 -2.885 17.366 -44.588
0.4121847920032451 0.033 0.078 1.178 -4.115 16.008 -44.084
0.41923762499936856 0.035 0.077 1.168 -5.366 16.252 -44.29
0.43140608300745953 0.05 0.07 1.153 -5.588 18.305 -44.748
0.43841908300237264 0.052 0.064 1.149 -4.42 20.046 -45.137
0.4504185420082649 0.049 0.049 1.144 -3.16 21.458 -45.336
0.4626002500008326 0.042 0.037 1.146 -0.542 21.611 -45.702
0.4695937079959549 0.025 0.051 1.148 1.519 19.069 -45.496
0.48223683300602715 0.031 0.072 1.161 2.328 17.504 -46.191
0.4891544580023037 0.05 0.072 1.165 1.595 17.779 -47.954
0.5014723330095876 0.074 0.093 1.169 0.702 17.687 -49.191
0.5085037920071045 0.11 0.093 1.158 0.191 16.947 -50.061
0.5206827500078361 0.133 0.097 1.162 -0.099 17.847 -50.588
0.5328989170084242 0.155 0.1 1.18 -1.244 17.115 -51.0
0.5400844579999102 0.185 0.104 1.179 -2.275 16.863 -49.267
0.5521139580087038 0.214 0.106 1.19 -4.069 16.198 -47.641
0.5587619169964455 0.243 0.093 1.182 -4.947 17.0 -45.359
0.5711885420023464 0.26 0.088 1.165 -5.962 18.748 -43.489
0.5783764170046197 0.255 0.074 1.157 -6.336 21.229 -42.656
0.5902485830010846 0.242 0.048 1.158 -5.412 21.626 -41.901
0.6025805420067627 0.215 0.052 1.158 -3.771 20.252 -40.748
0.609737207996659 0.22 0.053 1.168 -1.702 18.473 -39.626
0.6219354170025326 0.234 0.062 1.145 -0.885 18.038 -38.832
0.62898458300333 0.251 0.068 1.139 -1.397 19.992 -38.527
0.6410011670086533 0.24 0.063 1.142 -2.718 21.557 -38.397
0.6530797080049524 0.214 0.062 1.166 -4.389 22.786 -38.122
0.6601682080072351 0.181 0.051 1.173 -5.366 22.344 -38.565
0.6723806250083726 0.158 0.047 1.166 -6.527 22.206 -38.389
0.6796490830020048 0.164 0.028 1.175 -6.489 20.809 -38.649
0.6916355419962201 0.113 0.028 1.176 -4.084 21.122 -39.298
0.6985261250083568 0.095 0.036 1.222 -3.351 18.84 -38.916
0.7104698330076644 0.07 0.041 1.219 -1.282 14.817 -38.237
0.7230010000057518 0.087 0.045 1.215 -2.634 12.389 -37.611
0.7298595000029309 0.103 0.04 1.203 -4.214 10.229 -36.802
0.7420535830024164 0.107 0.038 1.18 -4.641 10.298 -36.267
0.74911545800569 0.106 0.039 1.198 -5.015 11.244 -36.206
0.7612718330055941 0.102 0.047 1.181 -4.634 12.145 -35.443
0.7679256670089671 0.106 0.047 1.18 -4.71 12.656 -35.038
0.7803195830056211 0.094 0.051 1.177 -5.366 10.878 -34.733
0.7929735420038924 0.069 0.052 1.166 -6.641 8.725 -34.847
0.7998296669975389 0.083 0.044 1.178 -7.405 7.756 -35.58
0.8121092500077793 0.072 0.041 1.159 -7.519 8.542 -38.405
0.819205082996632 0.052 0.023 1.146 -7.008 11.481 -42.504
0.8313388749957085 0.046 0.028 1.145 -5.336 12.298 -44.191
0.8384880420053378 0.061 0.041 1.144 -4.786 11.641 -43.053
0.8504370000009658 0.094 0.043 1.175 -4.046 12.13 -40.786
0.8625270830088994 0.055 0.04 1.177 -1.382 11.183 -38.29
0.8696620420087129 0.035 0.053 1.179 -1.015 6.168 -33.649
0.8822614170057932 0.06 0.049 1.15 0.336 2.374 -29.328
0.8892427920072805 0.072 0.025 1.13 3.809 2.069 -25.489
0.9014828750077868 0.067 0.039 1.129 7.092 0.679 -21.832
0.9087244999973336 0.07 0.056 1.132 7.847 -0.809 -19.672
0.9211422500084154 0.074 0.079 1.151 4.672 1.565 -22.115
0.9282019170059357 0.042 0.083 1.166 0.656 3.275 -26.985
0.9402958330028923 0.055 0.069 1.177 -1.443 4.504 -29.924
0.9531388330069603 0.083 0.07 1.149 -3.038 7.618 -35.267
0.9596767920011189 0.103 0.063 1.142 -3.947 13.382 -39.183
0.9717616249981802 0.112 0.069 1.153 -4.206 16.588 -39.87
0.9789399580040481 0.103 0.058 1.155 -3.603 17.374 -37.214
0.9910568750055972 0.079 0.068 1.165 -2.588 15.863 -33.321
0.9983043749962235 0.04 0.059 1.197 -0.763 10.122 -29.649
1.0104042919992935 0.039 0.058 1.189 1.244 7.107 -27.595
1.022848000007798 0.082 0.063 1.157 1.336 8.885 -27.763
1.030081542005064 0.118 0.052 1.155 0.344 14.588 -30.504
1.0421501670061843 0.103 0.04 1.128 0.878 22.458 -33.481
1.0491989169968292 0.072 0.056 1.159 1.229 27.45 -36.733
1.0615203750057844 0.02 0.072 1.187 0.466 26.786 -38.611
1.0685125830059405 0.014 0.08 1.217 -0.473 24.229 -38.595
1.0807107080036076 0.051 0.08 1.208 -1.481 22.008 -38.351
1.0929267500032438 0.077 0.085 1.191 -2.061 22.107 -37.817
1.1024719580018427 0.081 0.093 1.181 -4.176 22.664 -36.466
1.1119759580033133 0.059 0.084 1.207 -4.405 22.473 -35.145
1.1189813750097528 0.033 0.085 1.2 -3.794 19.55 -34.351
1.1311680829967372 0.036 0.057 1.197 -2.015 16.183 -33.252
1.138650458000484 0.068 0.045 1.159 0.313 16.565 -34.031
1.1505962920055026 0.103 0.054 1.154 0.542 20.092 -35.847
1.1630148330004886 0.09 0.061 1.165 -0.687 23.328 -37.771
1.1699156249960652 0.069 0.061 1.177 -2.046 24.809 -38.954
1.1818265000038082 0.061 0.056 1.186 -2.344 23.053 -39.153
1.1886112079955637 0.077 0.052 1.183 -1.786 22.45 -38.687
1.2010437499993714 0.103 0.045 1.162 -0.824 22.42 -37.397
1.2078454169968609 0.098 0.052 1.158 1.092 22.695 -36.55
1.2204805000073975 0.09 0.06 1.146 1.275 23.74 -35.374
1.2326984579995042 0.077 0.079 1.188 -0.672 22.931 -35.206
1.2393897919973824 0.062 0.077 1.205 -1.786 19.389 -34.092
1.2516650000034133 0.081 0.074 1.19 -1.885 17.588 -32.519
1.2586195830081124 0.124 0.063 1.171 -0.985 18.779 -31.756
1.2709174580086255 0.121 0.069 1.155 -0.412 22.053 -32.16
1.277878207998583 0.087 0.078 1.166 -0.473 24.458 -33.313
1.290063916996587 0.064 0.084 1.19 -0.443 23.939 -34.328
1.302483207997284 0.075 0.086 1.19 -1.313 23.16 -35.076
1.3092128330026753 0.079 0.074 1.184 -1.359 22.641 -35.611
1.3216313750017434 0.085 0.066 1.164 -1.298 23.824 -35.969
1.32854795800813 0.087 0.06 1.163 -1.122 23.458 -35.099
1.3406813750043511 0.091 0.064 1.158 -1.206 22.916 -33.832
1.352995583001757 0.073 0.063 1.168 -0.42 19.504 -32.046
1.3600727080047363 0.051 0.059 1.176 -0.061 15.191 -31.16
1.372239417003584 0.078 0.056 1.157 0.458 13.397 -31.198
1.3794645000016317 0.119 0.064 1.161 -0.038 15.023 -32.473
1.3916053749999264 0.131 0.07 1.145 -1.328 19.26 -34.695
1.3985622080072062 0.114 0.075 1.164 -3.168 21.916 -37.191
1.4106040000042412 0.083 0.074 1.18 -2.985 20.366 -37.504
1.4227672920096666 0.083 0.086 1.168 -2.313 17.496 -35.771
1.4299624999985099 0.121 0.072 1.154 -0.794 16.565 -33.664
1.4421343750000233 0.127 0.06 1.125 -0.527 19.076 -34.076
1.449244750008802 0.106 0.064 1.158 -2.122 21.634 -35.183
1.4612759580049897 0.084 0.063 1.18 -3.87 21.42 -36.679
1.4682581670058426 0.088 0.07 1.195 -5.412 20.366 -37.588
1.480485125008272 0.104 0.059 1.184 -4.405 19.779 -37.443
1.4924677079980029 0.101 0.06 1.174 -2.977 18.992 -37.099
1.4996438329981174 0.104 0.057 1.17 -1.206 18.45 -35.053
1.511972833002801 0.106 0.058 1.168 0.481 18.695 -33.328
1.5190022080059862 0.124 0.063 1.164 0.733 19.328 -31.794
1.5311928330047522 0.129 0.067 1.158 0.397 20.237 -30.618
1.538133583002491 0.112 0.072 1.159 -1.069 21.511 -31.191
1.5505187500093598 0.074 0.07 1.157 -1.763 22.229 -32.679
1.5625452079984825 0.082 0.064 1.148 -2.336 22.679 -33.71
1.5697280830063391 0.09 0.066 1.136 -3.069 24.008 -35.397
1.5818248330033384 0.076 0.052 1.15 -3.298 22.824 -36.977
1.5887050830060616 0.061 0.049 1.165 -2.802 19.038 -36.74
1.6009947499987902 0.083 0.041 1.16 -1.29 15.74 -36.672
1.6068630829977337 0.115 0.053 1.153 -0.382 15.107 -36.305
1.620381750006345 0.127 0.056 1.166 1.092 14.45 -35.275
1.6324739580013556 0.132 0.069 1.176 3.115 13.672 -33.061
1.6397035420086468 0.142 0.073 1.171 3.115 15.137 -32.229
1.651756999999634 0.139 0.08 1.188 1.702 18.588 -33.779
1.658911958002136 0.112 0.09 1.198 -0.603 19.244 -34.855
1.6710730000049807 0.087 0.089 1.194 -2.725 18.237 -34.832
1.678169999999227 0.077 0.062 1.203 -3.031 15.595 -34.878
1.69039962500392 0.082 0.069 1.177 -2.504 13.153 -33.618
1.7025579580076737 0.089 0.062 1.189 -0.947 11.542 -32.237
1.7095372500043595 0.091 0.062 1.184 -0.061 11.786 -33.153
1.72157129200059 0.1 0.057 1.17 -0.939 13.634 -34.55
1.728665041999193 0.114 0.06 1.173 -1.29 15.092 -36.489
1.7408071249956265 0.111 0.055 1.164 -1.466 16.824 -37.45
1.7532065420091385 0.098 0.058 1.16 -0.885 16.817 -37.298
1.7602066670078784 0.104 0.074 1.165 -0.656 16.244 -35.237
1.7722772080014693 0.113 0.065 1.164 -1.069 16.244 -32.962
1.7790950830094516 0.103 0.07 1.179 -2.084 15.534 -31.42
1.791272000002209 0.102 0.066 1.182 -3.473 15.221 -30.069
1.7987838330009254 0.126 0.048 1.183 -4.0 17.321 -30.786
1.8105864170065615 0.115 0.053 1.168 -3.031 20.588 -33.382
1.8227592920011375 0.093 0.057 1.18 -2.45 22.664 -36.282
1.8300433330005035 0.088 0.061 1.169 -1.443 23.16 -36.832
1.842263541999273 0.108 0.061 1.174 0.069 21.962 -35.527
1.8493450420064619 0.107 0.063 1.16 1.771 20.511 -33.053
1.8613344580080593 0.095 0.08 1.185 1.893 15.908 -30.893
1.86857437499566 0.056 0.095 1.174 0.336 14.779 -33.176
1.8806864579964895 0.057 0.093 1.186 -3.519 16.13 -36.817
1.8928457080037333 0.1 0.094 1.173 -6.977 18.427 -40.603
1.900008083001012 0.133 0.075 1.145 -10.756 22.275 -42.519
1.9120102919987403 0.151 0.051 1.141 -11.305 25.466 -41.641
1.918957166999462 0.139 0.032 1.114 -9.321 25.206 -38.359
1.931024083009106 0.12 0.028 1.131 -5.496 22.145 -34.176
1.9382534580072388 0.105 0.027 1.132 -1.489 19.023 -31.389
1.950413208003738 0.091 0.037 1.142 0.878 16.573 -31.412
1.962478707995615 0.109 0.051 1.145 1.595 16.275 -33.023
1.9696281670039752 0.151 0.059 1.145 0.45 18.626 -35.405
1.9817051669961074 0.163 0.054 1.135 -1.84 23.725 -37.229
1.9889769169967622 0.137 0.059 1.152 -3.084 27.046 -39.076
2.0010670000046957 0.111 0.049 1.163 -2.641 26.588 -38.313
2.008235542001785 0.091 0.035 1.16 0.198 23.076 -36.718
2.0204056250076974 0.103 0.045 1.151 2.115 19.687 -35.214
2.0328781669959426 0.108 0.05 1.168 2.847 18.16 -34.527
2.04000704200007 0.119 0.07 1.179 3.519 17.992 -34.115
2.052048708006623 0.13 0.081 1.17 2.794 20.893 -35.42
2.0592656250082655 0.136 0.092 1.192 0.786 24.008 -36.511
2.071322957999655 0.128 0.104 1.205 -0.336 23.824 -35.863
2.0785508749977453 0.129 0.105 1.19 -1.16 22.092 -33.603
2.0905257499980507 0.124 0.107 1.181 -2.832 20.863 -31.427
2.1028189579956234 0.101 0.088 1.187 -3.84 20.878 -31.374
2.1095360420004 0.08 0.092 1.191 -6.42 18.427 -32.412
2.1219705830008024 0.086 0.066 1.188 -6.58 16.496 -32.763
2.128970958001446 0.134 0.049 1.15 -6.466 17.069 -33.153
2.1411220419977326 0.142 0.029 1.121 -5.42 21.176 -34.046
2.1483156670001335 0.112 0.023 1.147 -3.664 24.275 -36.168
2.1604852919990662 0.074 0.023 1.162 -0.916 23.786 -36.489
2.1725230000010924 0.07 0.042 1.187 0.237 18.282 -35.603
2.1797406249970663 0.103 0.036 1.161 0.275 15.282 -35.809
2.1918516250007087 0.135 0.035 1.163 -0.672 16.321 -36.45
2.199093625007663 0.131 0.048 1.179 -2.099 16.992 -37.351
2.2111076250002952 0.14 0.064 1.171 -2.962 17.313 -37.122
2.2168453330086777 0.136 0.067 1.18 -3.473 18.641 -38.405
2.2299404170044 0.121 0.07 1.189 -2.863 20.061 -39.42
2.242375292000361 0.133 0.065 1.194 -0.649 20.038 -38.359
2.2494223329995293 0.15 0.051 1.177 2.031 19.29 -36.626
2.261781000008341 0.164 0.057 1.161 2.771 19.802 -35.092
2.2690155830059666 0.165 0.056 1.174 3.779 20.16 -34.137
2.2811726670042844 0.148 0.079 1.166 3.282 19.366 -33.924
2.2881716249976307 0.128 0.073 1.176 3.313 20.061 -35.656
2.3003129999997327 0.124 0.095 1.171 2.214 21.779 -38.29
2.3129452080029296 0.143 0.089 1.177 0.267 23.137 -39.985
2.319470292000915 0.133 0.09 1.167 -1.832 24.107 -40.26
2.3317520420096116 0.154 0.073 1.148 -3.344 25.977 -39.916
2.338863458004198 0.16 0.068 1.156 -4.626 26.863 -38.687
2.351010958009283 0.144 0.065 1.16 -5.252 26.443 -38.42
2.3580249579972588 0.103 0.058 1.144 -5.191 26.252 -38.969
2.3704260000085924 0.081 0.043 1.155 -3.061 25.359 -38.527
2.382562124999822 0.082 0.04 1.148 -0.618 23.496 -38.069
2.3895082920062123 0.099 0.039 1.156 1.557 22.55 -36.832
2.40194516700285 0.113 0.044 1.155 3.557 21.473 -34.328
2.4089831250021234 0.125 0.058 1.163 3.733 21.191 -33.115
2.421057750005275 0.12 0.068 1.163 2.176 22.382 -33.618
2.428252124998835 0.11 0.075 1.172 0.779 23.511 -34.786
2.440369625008316 0.1 0.084 1.17 -1.084 25.038 -35.458
2.4524696250009583 0.107 0.076 1.171 -1.656 26.198 -36.16
2.459615291998489 0.115 0.08 1.188 -2.191 26.176 -36.42
2.4718464170000516 0.11 0.077 1.194 -2.267 26.366 -36.374
2.479139375005616 0.104 0.074 1.183 -2.168 25.908 -37.237
2.4911516249994747 0.106 0.069 1.172 -1.771 26.58 -36.573
2.496929957997054 0.129 0.063 1.171 -1.313 27.092 -35.214
2.510507750004763 0.118 0.06 1.175 1.053 25.183 -32.26
2.5225438330089673 0.107 0.07 1.188 3.45 21.214 -28.863
2.5297684999968624 0.087 0.09 1.167 3.702 20.191 -28.634
