Time AX AY AZ GX GY GZ
0.01280341699020937 0.081 0.161 1.176 -1.969 23.725 -43.748
0.019726416998310015 0.074 0.158 1.189 -1.84 22.962 -44.336
0.032045166997704655 0.067 0.163 1.192 -1.939 21.29 -44.641
0.04424320798716508 0.072 0.156 1.182 -2.656 19.763 -44.191
0.05123491698759608 0.087 0.15 1.176 -2.763 18.924 -44.092
0.06352199998218566 0.084 0.147 1.167 -3.099 19.641 -44.473
0.07033358298940584 0.092 0.145 1.167 -3.344 20.382 -44.954
0.08256283297669142 0.088 0.149 1.167 -3.557 20.924 -45.206
0.08955091697862372 0.099 0.149 1.163 -3.771 21.725 -45.351
0.10191133298212662 0.089 0.148 1.176 -4.458 21.336 -45.855
0.11406283298856579 0.094 0.157 1.17 -4.885 21.214 -45.42
0.12118308298522606 0.09 0.149 1.177 -4.992 20.191 -45.626
0.13334674999350682 0.092 0.154 1.172 -4.969 19.092 -45.206
0.14034420798998326 0.093 0.153 1.165 -5.176 17.817 -44.702
0.15234133298508823 0.102 0.147 1.163 -5.282 18.015 -44.176
0.1647574169910513 0.107 0.144 1.165 -5.565 18.221 -43.649
0.17167133299517445 0.104 0.139 1.156 -5.435 18.939 -43.71
0.18382308300351724 0.108 0.131 1.151 -4.649 20.832 -43.969
0.19103787498897873 0.087 0.135 1.166 -4.863 21.229 -45.733
0.20311854197643697 0.077 0.136 1.153 -4.473 20.885 -46.664
0.20977116699214093 0.104 0.14 1.151 -4.893 20.328 -46.817
0.22230770799797028 0.12 0.145 1.149 -4.733 21.26 -46.656
0.23453049999079667 0.123 0.152 1.147 -4.42 22.794 -46.26
0.2414157500024885 0.117 0.155 1.146 -4.702 23.626 -46.168
0.25358066699118353 0.111 0.162 1.16 -5.328 23.107 -45.221
0.26059049999457784 0.109 0.151 1.162 -5.351 21.481 -45.229
0.27286199998343363 0.111 0.145 1.17 -5.328 20.389 -45.008
0.27966716699302197 0.121 0.14 1.152 -5.214 19.969 -44.962
0.29172666699741967 0.121 0.145 1.139 -5.237 21.0 -45.198
0.30402020798646845 0.122 0.144 1.145 -5.847 22.695 -45.13
0.3111066249839496 0.117 0.136 1.156 -6.191 23.496 -45.489
0.32343487499747425 0.102 0.136 1.16 -6.725 23.756 -45.321
0.3303367079934105 0.095 0.126 1.176 -6.962 22.29 -45.832
0.3427096669911407 0.081 0.126 1.166 -6.718 19.832 -45.328
0.34855941697605886 0.092 0.126 1.158 -6.794 18.786 -44.718
0.36158887497731484 0.098 0.118 1.156 -6.397 18.344 -45.519
0.3738158329797443 0.092 0.117 1.156 -6.145 18.015 -45.702
0.3811162920028437 0.098 0.126 1.148 -5.954 17.519 -45.802
0.3931877079885453 0.109 0.124 1.154 -5.733 17.916 -45.672
0.4001005419995636 0.11 0.13 1.154 -5.168 18.748 -45.519
0.4123751249862835 0.104 0.132 1.165 -4.947 18.107 -44.924
0.42474879199289717 0.093 0.139 1.163 -5.618 17.038 -45.092
0.4315367079980206 0.098 0.128 1.177 -5.962 16.076 -45.244
0.44350412499625236 0.102 0.114 1.152 -5.206 15.328 -44.977
0.4505442499939818 0.11 0.121 1.147 -5.321 14.992 -44.366
0.4628498749807477 0.11 0.118 1.162 -5.244 15.328 -44.137
0.4700284169812221 0.12 0.126 1.137 -5.519 16.046 -43.924
0.4823102919908706 0.115 0.132 1.146 -6.435 17.366 -43.687
0.49439866698230617 0.119 0.122 1.138 -6.672 18.656 -42.656
0.5021822919952683 0.113 0.12 1.146 -5.947 20.107 -42.649
0.5132782500004396 0.099 0.116 1.148 -5.58 20.84 -43.443
0.5203662919811904 0.09 0.113 1.145 -5.84 21.107 -44.298
0.5326962079852819 0.091 0.116 1.156 -5.519 20.206 -44.901
0.5395676670013927 0.089 0.122 1.155 -5.649 19.244 -44.328
0.5520289169799071 0.092 0.119 1.159 -5.145 18.855 -43.405
0.5641452919808216 0.097 0.122 1.166 -5.26 18.603 -42.954
0.5710122919990681 0.09 0.117 1.172 -5.435 17.924 -42.237
0.5832176669791806 0.081 0.121 1.159 -5.435 17.29 -41.771
0.5901244999840856 0.081 0.118 1.159 -5.221 17.321 -41.427
0.60249079199275 0.083 0.114 1.175 -4.237 17.26 -41.687
0.6144944169791415 0.08 0.123 1.172 -3.076 16.55 -41.115
0.6217017079761717 0.08 0.131 1.14 -2.786 16.038 -40.962
0.6336838330025785 0.073 0.127 1.153 -2.931 15.305 -40.473
0.6406365419970825 0.083 0.127 1.157 -2.405 14.252 -40.176
0.6527309169759974 0.085 0.121 1.146 -3.076 13.176 -40.504
0.6596752920013387 0.088 0.113 1.154 -3.336 13.634 -41.084
0.6719788329792209 0.098 0.116 1.146 -3.916 14.42 -42.496
0.6843055829813238 0.103 0.115 1.13 -5.031 16.527 -43.443
0.69140533299651 0.109 0.105 1.141 -4.908 18.786 -44.282
0.703569957986474 0.11 0.119 1.12 -4.031 20.527 -42.725
0.7102217499923427 0.122 0.123 1.126 -4.084 22.382 -41.565
0.7227055830007885 0.106 0.121 1.148 -3.702 22.733 -40.489
0.7296108329901472 0.088 0.122 1.154 -2.351 20.634 -38.573
0.7417897499981336 0.106 0.123 1.154 -1.099 19.817 -36.878
0.7540034999838099 0.109 0.128 1.149 -0.443 20.931 -36.519
0.761169167002663 0.091 0.121 1.171 0.489 20.725 -36.542
0.7732197080040351 0.095 0.129 1.156 1.611 20.702 -37.313
0.7803390829940327 0.09 0.131 1.162 0.985 22.344 -38.679
0.7943383749807253 0.071 0.131 1.17 0.534 22.153 -39.84
0.7999543749901932 0.072 0.132 1.174 0.405 19.611 -39.725
0.8121890829934273 0.084 0.129 1.146 0.099 19.244 -39.573
0.8242674169887323 0.085 0.123 1.155 0.275 19.641 -39.763
0.8313048330019228 0.083 0.129 1.171 -0.031 19.305 -39.42
0.8435283330036327 0.08 0.127 1.169 -0.466 18.328 -38.847
0.8504813750041649 0.09 0.132 1.162 -0.336 18.176 -37.916
0.8630150419776328 0.09 0.136 1.157 -0.588 17.489 -37.84
0.8698385419847909 0.095 0.13 1.163 -0.954 18.183 -36.916
0.8820702919911128 0.076 0.133 1.176 -1.435 18.122 -37.954
0.8940716669894755 0.075 0.125 1.167 -2.099 18.443 -39.786
0.9010805419820827 0.083 0.123 1.172 -3.29 19.076 -41.603
0.9132977499975823 0.095 0.124 1.16 -3.885 19.084 -41.901
0.9203432079812046 0.101 0.124 1.154 -3.878 20.099 -41.405
0.9326932919793762 0.091 0.126 1.156 -3.473 19.725 -40.0
0.9383035829814617 0.072 0.123 1.179 -3.328 17.863 -38.573
0.9517064999963623 0.073 0.119 1.18 -2.802 14.641 -36.931
0.9637177499826066 0.092 0.109 1.169 -1.55 13.565 -35.313
0.9707802920020185 0.096 0.117 1.158 -0.649 15.252 -35.687
0.9831211249984335 0.093 0.12 1.155 -0.702 17.038 -37.168
0.9901521669817157 0.09 0.115 1.155 -0.794 18.954 -39.366
1.002398999989964 0.093 0.119 1.157 -1.939 20.832 -41.489
1.0146208749793004 0.088 0.118 1.167 -3.42 21.55 -43.458
1.0213270419917535 0.093 0.12 1.181 -3.992 20.878 -43.023
1.0335587080044206 0.083 0.123 1.183 -3.84 19.71 -42.183
1.0406520830001682 0.083 0.118 1.182 -4.321 18.298 -42.038
1.0546738329867367 0.074 0.116 1.196 -3.794 16.252 -41.45
1.0597412920033094 0.09 0.118 1.179 -2.924 14.954 -40.87
1.0720996669842862 0.1 0.124 1.162 -2.794 15.55 -39.977
1.0842940000002272 0.113 0.117 1.168 -2.496 16.847 -39.534
1.0911146249854937 0.115 0.123 1.159 -2.687 17.962 -39.397
1.1034064579871483 0.103 0.12 1.16 -3.634 18.206 -39.565
1.1104926669795532 0.111 0.123 1.169 -4.58 18.435 -39.756
1.1228391669865232 0.115 0.126 1.152 -5.092 19.023 -40.053
1.129593624995323 0.121 0.122 1.15 -5.183 19.992 -40.618
1.1417864579998422 0.118 0.122 1.14 -5.046 21.458 -41.115
1.1540817499917466 0.111 0.113 1.153 -5.443 22.168 -42.031
1.1607555829978082 0.1 0.113 1.151 -5.603 21.679 -42.168
1.1730676669976674 0.113 0.101 1.162 -6.023 21.0 -42.313
1.1801353329792619 0.101 0.092 1.165 -5.29 19.191 -42.504
1.1922924579994287 0.098 0.088 1.144 -4.344 17.435 -42.855
1.2045869169814978 0.123 0.092 1.129 -3.695 17.58 -43.588
1.211852166976314 0.127 0.09 1.126 -3.496 19.275 -44.725
1.223932041990338 0.126 0.095 1.136 -2.939 20.244 -44.947
1.2305363329942338 0.137 0.108 1.139 -2.473 20.397 -43.824
1.2428440419898834 0.128 0.111 1.14 -0.977 18.71 -41.855
1.2499450419854838 0.132 0.114 1.145 0.87 16.443 -38.29
1.2623111249995418 0.142 0.122 1.137 1.802 14.443 -35.115
1.2745786249870434 0.143 0.125 1.142 1.718 13.221 -33.588
1.2818485419848002 0.143 0.123 1.139 0.939 14.275 -33.397
1.2938238749920856 0.138 0.127 1.146 -1.931 16.824 -34.756
1.300990957999602 0.132 0.104 1.15 -3.405 19.656 -37.115
1.3130610829975922 0.125 0.098 1.146 -5.603 21.824 -39.397
1.319821332988795 0.112 0.096 1.145 -6.473 23.496 -42.374
1.3319779169978574 0.106 0.09 1.151 -5.931 24.618 -43.107
1.3442902079841588 0.096 0.094 1.148 -4.458 23.275 -43.137
1.3513102080032695 0.096 0.095 1.145 -1.863 21.626 -41.931
1.3637719999824185 0.105 0.1 1.152 -0.183 19.16 -40.809
1.370452082977863 0.101 0.109 1.15 0.924 16.031 -39.069
1.3828251249797177 0.11 0.117 1.156 1.656 14.649 -38.588
1.3899927499878686 0.122 0.122 1.151 1.649 14.504 -38.763
1.4023553330043796 0.121 0.129 1.167 0.763 14.076 -39.099
1.414534499985166 0.133 0.14 1.134 -0.153 17.649 -39.084
1.421302167000249 0.117 0.147 1.152 -1.725 20.824 -39.282
1.4334716250014026 0.102 0.142 1.16 -3.351 21.519 -38.931
1.4405804580019321 0.098 0.131 1.176 -4.275 20.733 -38.794
1.453100666985847 0.099 0.12 1.156 -4.481 20.198 -39.176
1.4599890419922303 0.117 0.124 1.132 -6.58 20.237 -40.542
1.4720545829914045 0.108 0.111 1.153 -5.069 22.534 -40.924
1.4843060419952963 0.09 0.117 1.159 -4.015 21.115 -41.29
1.4909035000018775 0.1 0.111 1.157 -2.817 20.023 -41.282
1.5032631669891998 0.096 0.122 1.159 -1.779 18.939 -41.878
1.511103249998996 0.104 0.123 1.164 -0.763 17.687 -41.466
1.5228885829856154 0.094 0.122 1.164 -0.931 15.748 -41.389
1.529687499976717 0.113 0.144 1.141 -2.641 14.16 -41.466
1.5417718749959022 0.13 0.129 1.174 -2.282 14.435 -41.191
1.5540202499832958 0.14 0.137 1.153 -2.916 16.137 -40.893
1.560702874994604 0.132 0.14 1.146 -2.977 17.527 -39.137
1.57300595799461 0.115 0.136 1.152 -3.626 17.794 -38.328
1.580088207992958 0.09 0.13 1.164 -4.137 17.221 -38.015
1.592204832995776 0.091 0.132 1.171 -4.061 14.893 -38.511
1.604487832984887 0.102 0.13 1.166 -3.878 12.885 -37.893
1.6114801249932498 0.113 0.128 1.155 -3.733 12.206 -37.26
1.623754749976797 0.131 0.114 1.142 -2.786 13.542 -36.802
1.6304591670050286 0.129 0.12 1.13 -2.557 15.878 -37.443
1.6427859169780277 0.12 0.12 1.142 -2.557 17.916 -38.16
1.6497409580042586 0.116 0.124 1.138 -2.13 19.351 -38.16
1.6619679580035154 0.1 0.122 1.154 -2.229 18.626 -38.076
1.6742708749952726 0.102 0.121 1.162 -2.481 17.061 -38.336
1.6813910829951055 0.114 0.124 1.164 -3.031 16.015 -38.55
1.693510166980559 0.121 0.126 1.14 -3.603 16.42 -38.053
1.700316542002838 0.142 0.126 1.141 -3.847 17.679 -37.405
1.7126034169923514 0.129 0.121 1.149 -3.84 21.084 -37.588
1.7195618329860736 0.122 0.117 1.151 -3.038 21.969 -37.855
1.7319245419930667 0.124 0.106 1.161 -2.565 21.756 -38.053
1.7440197079849895 0.124 0.112 1.155 -1.611 22.115 -37.313
1.751305332989432 0.128 0.105 1.155 -0.489 22.542 -37.786
1.7637588749930728 0.12 0.121 1.151 -0.473 21.931 -37.115
1.7702998329768889 0.126 0.103 1.174 0.244 21.496 -36.748
1.7824942499864846 0.125 0.104 1.16 0.809 22.969 -36.924
1.78979516698746 0.109 0.122 1.173 0.634 23.099 -37.87
1.8018691249890253 0.112 0.126 1.178 0.641 22.13 -37.603
1.814028041990241 0.111 0.134 1.178 -0.16 21.863 -38.015
1.8211800419958308 0.103 0.132 1.19 -1.885 21.832 -39.374
1.833398374990793 0.101 0.138 1.198 -3.237 20.435 -40.115
1.8403373750043102 0.111 0.132 1.179 -4.122 19.573 -40.084
1.852450707985554 0.131 0.13 1.157 -4.733 21.504 -39.885
1.858145832986338 0.13 0.118 1.162 -4.985 23.031 -40.153
1.8715674999984913 0.118 0.12 1.16 -5.435 23.191 -39.634
1.883797541988315 0.117 0.112 1.165 -5.176 21.466 -38.71
1.8910532500012778 0.123 0.11 1.158 -3.573 20.298 -37.046
1.9031769580033142 0.117 0.114 1.159 -2.893 19.244 -36.221
1.91012658298132 0.125 0.123 1.157 -2.504 20.344 -36.29
1.9225412499799859 0.11 0.119 1.162 -2.725 20.168 -37.779
1.9348529579874594 0.115 0.116 1.162 -3.901 21.679 -39.336
1.9413031669973861 0.125 0.109 1.164 -5.206 23.153 -41.122
1.953463166981237 0.129 0.102 1.162 -6.122 23.855 -40.725
1.9609682919981424 0.135 0.098 1.154 -5.328 23.382 -39.252
1.9727600420010276 0.122 0.105 1.161 -3.687 22.908 -37.71
1.9798051669786219 0.116 0.113 1.154 -1.58 22.145 -36.863
1.99203712499002 0.116 0.119 1.157 -0.427 21.718 -36.389
2.0042451249901205 0.107 0.125 1.143 -0.947 21.351 -36.794
2.0109763329965062 0.105 0.126 1.167 -2.45 20.58 -37.237
2.0234423329820856 0.118 0.126 1.162 -3.519 19.275 -37.664
2.0302671249955893 0.126 0.124 1.16 -4.511 18.901 -37.496
2.042610791977495 0.141 0.114 1.148 -5.053 20.282 -37.855
2.0497791249945294 0.133 0.101 1.156 -5.229 22.893 -39.595
2.061894416983705 0.129 0.103 1.152 -5.275 25.267 -40.527
2.074054625001736 0.115 0.104 1.157 -4.466 24.962 -40.794
2.0809589579876047 0.126 0.1 1.152 -2.863 23.641 -39.382
2.0932205419812817 0.135 0.102 1.158 -0.687 22.198 -37.58
2.100353957997868 0.135 0.117 1.162 0.069 20.519 -36.023
2.112597957981052 0.127 0.11 1.161 0.313 18.626 -34.588
2.1198729169846047 0.148 0.106 1.167 0.733 19.13 -34.931
2.1320188329846133 0.156 0.121 1.139 -0.305 21.786 -37.534
2.144156916998327 0.136 0.124 1.164 -1.198 25.061 -39.198
2.1510712500021327 0.126 0.116 1.162 -3.069 25.824 -40.618
2.163253167003859 0.133 0.114 1.175 -4.718 27.328 -41.053
2.1699496670044027 0.1 0.112 1.186 -5.198 26.13 -40.359
2.1823779169935733 0.099 0.104 1.191 -4.718 24.031 -39.29
2.194521416997304 0.105 0.088 1.197 -3.893 21.863 -38.359
2.2016743749845773 0.109 0.095 1.168 -2.855 20.901 -38.473
2.213687082985416 0.102 0.103 1.17 -3.053 20.977 -38.977
2.2204280830046628 0.095 0.115 1.172 -3.634 21.878 -39.466
2.232974332990125 0.099 0.1 1.187 -2.893 20.031 -39.779
2.2397990000026766 0.112 0.104 1.182 -2.916 18.664 -39.947
2.252366250002524 0.111 0.103 1.177 -3.092 18.122 -40.267
2.264292749983724 0.12 0.1 1.166 -3.656 17.656 -40.374
2.271373458002927 0.12 0.097 1.18 -4.71 16.931 -40.588
2.2836084169975948 0.127 0.087 1.179 -4.573 14.954 -40.107
2.290284207992954 0.141 0.099 1.151 -3.298 14.137 -38.84
2.3025752079847734 0.159 0.106 1.133 -2.534 14.992 -37.794
2.309657874982804 0.153 0.104 1.141 -0.969 16.183 -37.321
2.3217673749895766 0.157 0.114 1.132 0.733 17.573 -35.763
2.3342312079912517 0.156 0.101 1.136 0.565 19.618 -35.427
2.341234749997966 0.139 0.104 1.151 0.328 20.099 -35.435
2.353480874997331 0.129 0.102 1.17 -0.282 18.664 -35.817
2.360264874994755 0.124 0.104 1.162 -0.649 17.58 -36.733
2.3724820829811506 0.138 0.102 1.149 -1.878 18.588 -37.282
2.379510250000749 0.137 0.109 1.153 -2.832 20.595 -38.206
2.3917979999969248 0.126 0.098 1.152 -3.405 22.534 -38.008
2.4040543329901993 0.122 0.098 1.159 -3.489 22.351 -38.084
2.411201999988407 0.116 0.095 1.159 -2.87 20.74 -36.496
2.4233944169827737 0.123 0.09 1.157 -1.305 18.725 -34.679
2.43034216700471 0.133 0.091 1.144 0.786 17.412 -32.366
2.4427456249832176 0.125 0.085 1.132 2.466 17.206 -31.458
2.44962604198372 0.125 0.089 1.124 3.229 18.374 -31.42
2.4621440829942003 0.105 0.098 1.134 3.221 18.847 -32.893
2.474292333004996 0.1 0.098 1.135 2.321 19.389 -34.802
2.481424458004767 0.111 0.11 1.136 1.145 20.496 -37.015
2.4934994579816703 0.11 0.107 1.138 -0.221 21.153 -38.466
2.500293207995128 0.117 0.113 1.147 -1.305 22.336 -39.321
2.512625041999854 0.124 0.119 1.162 -1.687 22.84 -39.435
2.5198304999794345 0.122 0.122 1.158 -0.634 23.29 -38.183
