Time AX AY AZ GX GY GZ
0.019798833999999488 -0.026 -0.085 0.979 -1.206 -0.076 0.214
0.032216417000000774 -0.021 -0.106 0.977 -2.008 0.099 -0.496
0.0390884999999912 -0.023 -0.103 0.977 -0.74 -0.786 -0.466
0.051367208999991476 -0.012 -0.104 0.971 -0.557 1.023 -0.679
0.058415666999991345 -0.022 -0.101 0.98 -1.084 0.511 -1.786
0.07048512499999049 -0.025 -0.11 0.984 -0.267 -0.71 0.214
0.07785733400000083 -0.026 -0.094 0.995 0.16 -1.183 0.214
0.09029970899999284 -0.043 -0.088 1.001 -0.824 -1.458 0.115
0.10242087499999286 -0.033 -0.096 0.999 -1.443 -1.305 -1.29
0.10967195899999638 -0.035 -0.078 0.98 -1.855 -0.206 -1.183
0.12164229199999 -0.021 -0.096 0.978 -2.031 -0.588 -1.214
0.12887683399999617 -0.031 -0.1 0.995 -1.794 1.878 -0.924
0.14103020899999308 -0.032 -0.098 0.973 -2.359 0.809 -2.015
0.14833129199999462 -0.027 -0.083 0.985 -1.794 -0.405 -1.046
0.16027712499999325 -0.021 -0.105 0.979 -1.466 -2.275 1.847
0.1722743339999937 -0.014 -0.105 0.98 -0.756 -1.534 1.641
0.17958679199999494 -0.023 -0.098 0.985 -0.481 -1.183 1.374
0.19184008399999186 -0.017 -0.097 0.978 -0.985 0.366 1.061
0.1991380420000013 -0.034 -0.108 0.99 -0.962 0.618 -0.29
0.21122274999999036 -0.028 -0.093 0.984 -1.298 3.061 -1.84
0.21840154199999517 -0.042 -0.097 0.991 -2.214 2.313 -2.969
0.23074083400000234 -0.027 -0.102 0.98 -1.939 2.26 -2.687
0.23798712500000363 -0.028 -0.105 0.968 -1.672 2.221 -2.595
0.25003820899999596 -0.032 -0.097 0.978 -2.023 1.847 -4.26
0.26203654199998994 -0.013 -0.099 0.968 -2.053 1.634 -2.84
0.26936683399999595 -0.026 -0.104 0.99 -1.511 1.443 -1.817
0.2815550419999937 -0.021 -0.103 0.976 -1.443 2.053 -1.786
0.28856745899999225 -0.024 -0.101 0.978 -1.29 1.458 -2.122
0.30076712499999303 -0.017 -0.104 0.989 -0.817 1.473 -0.962
0.30781641699999795 -0.015 -0.102 0.984 -0.885 0.763 -1.008
0.32027699999999015 -0.018 -0.095 0.987 -0.847 0.718 0.015
0.3324953749999935 -0.025 -0.117 0.988 -0.725 0.237 0.641
0.3397767089999917 -0.021 -0.109 0.984 -0.771 0.908 -0.282
0.35205224999999984 -0.043 -0.094 0.993 -1.267 0.977 -1.069
0.35907370900000046 -0.037 -0.099 1.002 -1.824 -0.603 -0.763
0.371409749999998 -0.032 -0.105 0.978 -1.42 -1.084 0.328
0.378651167000001 -0.015 -0.1 0.979 -0.832 -0.45 0.748
0.3906552499999947 -0.011 -0.093 0.975 -1.244 0.321 0.901
0.39792087499999695 -0.021 -0.099 0.97 -0.748 -1.718 3.443
0.4102213749999919 -0.018 -0.092 0.977 -0.45 -1.954 4.031
0.4222533749999968 -0.029 -0.099 0.977 -0.611 -2.389 3.153
0.42953299999999217 -0.031 -0.106 0.991 -0.511 -2.443 4.183
0.44163508399999785 -0.027 -0.094 0.997 -0.397 -2.847 2.969
0.4488969589999954 -0.029 -0.098 0.986 -0.672 -3.305 3.382
0.4611889170000012 -0.03 -0.094 1.005 -0.947 -4.374 3.252
0.4684677089999951 -0.015 -0.078 0.989 -1.618 -3.595 3.252
0.4804612499999905 -0.018 -0.102 0.984 -1.588 -3.214 3.122
0.4924650419999921 -0.017 -0.108 0.976 -1.664 -1.061 1.359
0.49979395900000156 -0.017 -0.11 0.981 -1.519 -1.099 0.443
0.5120311670000035 -0.011 -0.099 0.974 -1.58 0.061 1.16
0.519356333999994 -0.021 -0.109 0.985 -1.649 -0.489 -0.344
0.5313864590000037 -0.03 -0.101 0.978 -2.031 -1.183 -0.863
0.5386543340000003 0.0 -0.115 0.968 -1.076 -0.557 -0.817
0.5507002499999913 -0.022 -0.09 0.977 -1.718 -0.557 -0.344
0.5566122089999936 -0.013 -0.11 0.984 -0.924 -1.214 -1.817
0.5700020419999987 -0.009 -0.115 0.971 -0.359 0.427 -1.336
0.5820218340000025 -0.008 -0.112 0.987 -0.344 0.893 -1.275
0.5892905839999969 -0.026 -0.117 0.99 -0.023 1.0 -1.267
0.6013423750000015 -0.008 -0.095 0.993 -0.053 1.817 -3.389
0.6086873750000024 -0.023 -0.1 0.99 -0.496 1.008 -2.359
0.6209172499999909 -0.012 -0.098 0.983 -0.336 1.313 -1.206
0.6282595839999914 -0.016 -0.113 0.983 -0.26 0.977 -1.733
0.6402183339999965 -0.006 -0.093 0.989 -0.496 2.275 -1.885
0.652238834000002 -0.026 -0.089 0.989 -0.855 1.145 -0.481
0.6595370000000003 -0.026 -0.094 0.991 -1.122 2.634 -0.664
0.6718442089999996 -0.019 -0.086 0.991 -1.809 4.107 -1.427
0.6791001670000014 -0.03 -0.094 0.982 -1.695 3.527 -0.107
0.6911535839999914 -0.053 -0.111 1.004 -1.267 2.099 -0.679
0.6984012089999965 -0.024 -0.086 0.984 -1.84 2.489 0.115
0.7108173339999979 -0.043 -0.08 0.981 -2.397 2.122 0.214
0.7179859169999929 -0.036 -0.083 0.985 -2.901 2.008 0.168
0.7302726249999978 -0.03 -0.091 0.988 -3.16 0.802 0.55
0.7422456669999917 -0.036 -0.09 0.988 -3.351 -0.435 2.076
0.7495154589999942 -0.035 -0.091 0.979 -3.962 -1.191 2.58
0.7618136669999984 -0.014 -0.111 0.976 -3.855 -0.573 2.16
0.769101875000004 -0.02 -0.122 0.979 -3.641 0.267 0.405
0.781144624999996 -0.024 -0.127 0.98 -3.321 -0.061 0.237
0.7884168340000031 -0.014 -0.109 0.979 -3.351 0.069 -1.122
0.8004634999999922 -0.003 -0.108 0.98 -2.702 -0.649 -0.328
0.806584749999999 -0.008 -0.127 0.982 -2.107 -0.84 1.435
0.8197799999999944 -0.012 -0.107 0.977 -2.229 -0.092 -0.443
0.8320632920000008 -0.018 -0.092 0.971 -1.878 1.107 -0.298
0.8393668749999961 -0.013 -0.114 0.97 -1.71 -2.489 0.855
0.8514122499999957 -0.001 -0.126 0.966 -1.58 0.916 -0.458
0.8586332919999933 -0.031 -0.127 0.974 -1.16 -0.802 0.443
0.8706582089999984 -0.007 -0.123 0.979 -0.176 -0.779 0.427
0.8782375419999937 -0.031 -0.126 0.984 0.084 -1.794 0.084
0.8902109590000009 -0.006 -0.12 0.988 0.191 -0.168 -1.061
0.9022426669999959 -0.024 -0.118 0.993 0.45 -1.0 -0.313
0.9095512920000033 -0.013 -0.121 0.98 0.87 -0.634 -0.908
0.9218109589999983 -0.02 -0.098 0.983 0.145 -0.779 -1.458
0.9291199999999975 -0.011 -0.104 0.97 0.351 -0.992 -0.359
0.9411482499999977 -0.033 -0.095 0.991 0.58 -1.893 1.962
0.948679999999996 -0.014 -0.105 0.991 0.672 0.412 -1.191
0.9606379169999997 -0.021 -0.097 0.985 0.13 2.275 -1.008
0.9682814589999964 -0.022 -0.107 0.99 0.672 0.794 -0.733
0.9802878750000019 -0.032 -0.108 0.992 0.756 3.137 -1.924
0.9925186250000024 -0.031 -0.107 0.992 0.802 2.313 -1.42
0.9996474999999947 -0.032 -0.088 0.989 0.855 3.206 -1.405
1.0120386250000024 -0.031 -0.081 0.986 0.534 3.687 -0.954
1.0190762499999977 -0.042 -0.085 0.992 0.191 2.656 -0.611
1.0315236249999913 -0.028 -0.064 0.976 -1.527 3.023 -0.802
1.0384975839999981 -0.027 -0.071 0.973 -2.847 1.771 -1.015
1.0507522919999985 -0.036 -0.111 0.976 -2.611 0.427 0.328
1.057679874999991 -0.005 -0.1 0.965 -2.695 0.313 -1.221
1.0702576669999928 -0.009 -0.116 0.979 -2.58 -0.153 0.198
1.0824772090000039 -0.008 -0.134 0.979 -1.481 0.71 -1.389
1.0894956249999979 -0.011 -0.115 0.974 -1.55 1.145 -2.137
1.1017164590000021 -0.027 -0.116 0.993 -1.237 1.321 -1.069
1.1087583749999936 -0.037 -0.101 1.005 -1.702 0.74 -1.626
1.1212429999999927 -0.015 -0.101 1.003 -2.473 1.145 -1.382
1.128323041999991 -0.017 -0.112 0.977 -2.458 0.947 -1.626
1.1405909169999973 -0.009 -0.117 0.982 -2.397 1.557 -2.458
1.147686667000002 -0.008 -0.125 0.969 -1.573 -0.008 -0.374
1.1598490419999905 0.002 -0.129 0.95 -0.534 1.405 -1.298
1.1723277919999902 -0.013 -0.135 0.955 0.229 1.29 -1.985
1.179581541999994 -0.01 -0.117 0.975 0.771 3.031 -3.038
1.1918683749999985 -0.021 -0.113 0.982 1.214 1.84 -2.26
1.1990762499999903 -0.017 -0.116 0.985 1.412 3.099 -2.55
1.2115221669999983 -0.041 -0.123 0.991 1.992 2.046 -2.115
1.2187263750000028 -0.038 -0.098 1.012 1.405 2.656 -2.679
1.2309251249999988 -0.047 -0.077 1.012 0.275 2.214 -2.031
1.2382223749999923 -0.053 -0.094 1.002 0.015 1.244 -1.267
1.2505341250000015 -0.037 -0.103 0.986 -0.237 1.42 -0.916
1.2625042089999994 -0.028 -0.1 0.977 0.038 3.595 -1.221
1.2700484169999982 -0.032 -0.096 0.98 0.344 3.863 -0.496
1.2820293749999934 -0.028 -0.091 0.974 0.137 3.473 -0.58
1.2893757920000013 -0.04 -0.092 0.979 -0.305 3.313 -0.366
1.3015792089999962 -0.035 -0.088 0.973 -0.748 2.687 -0.168
1.3085470420000007 -0.055 -0.108 0.983 -1.015 1.092 0.26
1.320695583999992 -0.033 -0.087 0.997 -1.687 -0.45 -0.58
1.3279312499999918 -0.044 -0.091 0.982 -2.099 -1.74 1.573
1.3401149589999903 -0.023 -0.12 0.976 -1.565 -1.237 1.107
1.3525572920000002 -0.017 -0.105 0.978 -1.313 -0.55 0.435
1.3598034589999912 -0.014 -0.103 0.972 -1.26 -0.908 1.595
1.3718135000000018 -0.016 -0.103 0.976 -1.053 -0.687 1.489
1.3791012499999908 -0.014 -0.103 0.992 -1.427 0.55 0.015
1.391373041999998 -0.017 -0.104 0.993 -1.336 0.786 0.985
1.398615417000002 -0.026 -0.093 0.99 -2.137 1.153 0.305
1.4109251249999915 -0.027 -0.125 0.989 -1.756 1.13 -0.863
1.4182226249999985 -0.007 -0.12 0.976 -1.29 2.985 -0.573
1.430230249999994 -0.019 -0.121 0.99 -0.786 2.824 -1.504
1.4422537920000025 -0.018 -0.108 0.969 -0.511 4.122 -2.069
1.4498164999999972 -0.029 -0.09 0.983 -0.565 3.0 0.71
1.4618126670000038 -0.039 -0.114 0.995 -0.061 1.229 1.145
1.4693417089999912 -0.041 -0.108 0.984 -0.435 1.557 0.504
1.4813673749999907 -0.041 -0.094 0.984 -0.855 1.565 0.473
1.4889057089999937 -0.043 -0.103 0.981 -0.641 0.832 0.183
1.5009743749999984 -0.039 -0.109 0.972 -0.748 1.473 -0.489
1.508175874999992 -0.037 -0.097 0.973 -0.863 2.588 -0.885
1.520177375000003 -0.039 -0.1 0.99 -0.885 1.206 -0.595
1.5325126669999918 -0.037 -0.102 0.987 -0.84 1.786 0.947
1.5397331669999943 -0.05 -0.11 0.993 -0.748 0.0 0.924
1.5520193750000004 -0.036 -0.097 0.992 -0.947 1.038 0.42
1.5593702500000006 -0.043 -0.105 0.983 -1.313 0.931 0.809
1.5716232500000018 -0.033 -0.111 0.991 -1.359 1.573 0.168
1.5789151249999946 -0.034 -0.113 0.988 -1.267 2.053 -0.443
1.5908870419999914 -0.039 -0.104 0.982 -1.534 1.466 -0.313
1.5984605839999944 -0.029 -0.108 0.992 -1.084 1.618 0.534
1.6104765420000007 -0.027 -0.097 0.969 -1.351 2.023 0.122
1.617983499999994 -0.023 -0.1 0.973 -1.282 1.145 1.649
1.6300804589999984 -0.025 -0.109 0.978 -0.924 0.908 2.244
1.642262083999995 -0.033 -0.116 0.978 -0.565 1.023 1.267
1.6495819590000025 -0.039 -0.109 0.992 -1.038 1.42 -0.229
1.6616468339999955 -0.042 -0.104 0.979 -1.191 1.13 -0.664
1.6688389170000022 -0.018 -0.105 0.978 -1.107 0.229 -0.26
1.6811627499999986 -0.026 -0.122 0.976 -0.863 -0.611 1.29
1.6884676250000012 -0.011 -0.121 0.972 -0.626 0.725 -0.137
1.700442584000001 -0.025 -0.131 0.975 -0.221 1.053 -0.672
1.706340209000004 -0.033 -0.113 0.978 0.145 1.733 -2.405
1.7200235419999927 -0.019 -0.11 0.962 0.412 2.664 -2.931
1.7322859169999987 -0.063 -0.129 0.986 0.87 1.817 -3.634
1.7395667499999945 -0.017 -0.091 0.971 0.679 1.832 -4.313
1.7518243339999913 -0.051 -0.087 0.977 0.573 1.244 -3.015
1.7591133749999983 -0.038 -0.089 0.986 0.405 -0.519 -2.817
1.7711577089999935 -0.047 -0.089 0.974 -0.298 0.58 -2.069
1.7784659169999912 -0.043 -0.092 0.988 -0.382 -1.954 -0.366
1.7904689169999983 -0.044 -0.086 0.991 -0.977 -0.473 -0.542
1.8025016249999908 -0.028 -0.12 0.976 -0.809 0.13 -1.733
1.809773333999999 -0.024 -0.117 0.961 -0.519 2.053 -1.71
1.8218308339999965 -0.04 -0.104 0.971 -0.321 0.779 -0.282
1.8293620419999996 -0.052 -0.109 0.994 0.137 0.695 -1.176
1.8413704999999965 -0.037 -0.091 1.0 -0.443 1.412 -2.015
1.8486192089999918 -0.042 -0.077 0.988 -1.519 -0.183 0.137
1.8606798339999955 -0.05 -0.087 0.992 -1.954 -0.977 0.855
1.867999249999997 -0.036 -0.098 0.991 -2.511 -1.099 0.771
1.880301375000002 -0.03 -0.106 0.979 -2.275 0.511 2.053
1.8922381249999916 -0.035 -0.111 0.987 -1.481 -0.412 1.794
1.8997800839999996 -0.025 -0.105 0.979 -1.626 1.695 0.794
1.9117707089999953 -0.041 -0.106 0.98 -1.634 0.832 0.427
1.9193552919999917 -0.038 -0.102 0.986 -2.023 1.252 0.046
1.9313577500000036 -0.049 -0.104 0.987 -2.885 0.817 -1.885
1.9386457920000026 -0.031 -0.102 0.968 -3.061 0.237 -1.244
1.9507000839999904 -0.019 -0.121 0.973 -2.542 -0.221 -0.137
1.9579748749999908 -0.023 -0.123 0.979 -1.885 0.641 -2.107
1.970023709000003 -0.012 -0.091 0.975 -2.206 0.214 -0.191
1.9822853750000036 -0.025 -0.116 0.971 -1.527 -0.458 2.328
1.9895494590000027 -0.032 -0.121 0.984 -1.664 -0.145 0.84
2.0016743749999932 -0.031 -0.126 0.985 -1.565 -0.29 0.656
