Time AX AY AZ GX GY GZ
0.013025083000002269 0.13 -0.105 0.962 -0.969 0.305 -0.511
0.025413000000000352 0.12 -0.108 0.984 -2.305 1.26 0.359
0.03261824999999874 0.112 -0.099 0.979 -3.115 1.878 1.122
0.04511841700000474 0.109 -0.083 0.979 -3.076 2.573 0.366
0.05226800000000509 0.097 -0.105 0.971 -2.084 1.809 -0.191
0.06461183300000073 0.109 -0.117 0.988 -0.382 0.702 -1.412
0.07181429199999911 0.105 -0.115 0.977 0.573 0.489 -1.275
0.08409754200000208 0.114 -0.094 0.983 0.443 -0.901 -2.282
0.09165779199999946 0.118 -0.089 0.977 0.58 -1.511 -2.489
0.10368741700000328 0.128 -0.091 0.974 -0.313 -0.336 -2.061
0.11101349999999854 0.118 -0.097 0.977 -1.092 0.198 -1.313
0.12331754200000233 0.11 -0.108 0.975 0.443 -0.031 -2.069
0.1309546250000011 0.117 -0.121 0.981 2.817 0.107 -2.305
0.14310770800000228 0.132 -0.118 0.983 4.015 0.504 -3.237
0.15531433299999975 0.137 -0.105 1.0 3.023 1.29 -3.145
0.16256020800000215 0.142 -0.076 0.976 0.763 1.374 -3.008
0.17485804200000388 0.135 -0.095 0.98 -1.679 0.985 -2.336
0.18209991700000216 0.128 -0.095 0.99 -2.908 1.702 -1.534
0.19435916700000178 0.122 -0.114 1.0 -4.023 2.504 -0.931
0.20164550000000503 0.108 -0.114 0.986 -3.122 2.779 -0.466
0.21391279200000213 0.103 -0.117 0.976 -0.473 1.924 -1.885
0.22146862499999997 0.108 -0.105 0.972 1.183 0.191 -2.87
0.23346133300000105 0.119 -0.09 0.983 0.58 -0.092 -2.847
0.24108537500000438 0.127 -0.094 0.98 -2.221 0.603 -1.962
0.25302887500000537 0.116 -0.105 0.967 -2.847 0.565 -1.679
0.26525887500000067 0.118 -0.114 0.972 -2.695 0.557 -1.031
0.2725836250000029 0.109 -0.119 0.971 -0.771 0.55 -0.74
0.2848232919999987 0.104 -0.12 0.954 2.641 -0.183 -2.046
0.2923810830000022 0.126 -0.099 0.963 2.847 0.489 -2.641
0.30464129199999945 0.134 -0.096 0.958 2.069 0.366 -3.214
0.311885917000005 0.137 -0.087 0.967 -0.496 0.42 -4.046
0.3241854580000023 0.131 -0.081 0.968 -3.794 1.55 -3.939
0.33146404200000035 0.11 -0.096 0.969 -4.847 2.511 -3.282
0.3437329170000041 0.093 -0.106 0.983 -3.321 2.389 -3.191
0.35100112500000336 0.084 -0.113 0.977 -0.664 1.282 -3.435
0.3632500420000042 0.086 -0.113 0.99 1.237 0.015 -4.137
0.3691163330000009 0.107 -0.108 0.994 1.252 -0.55 -4.374
0.38278449999999964 0.113 -0.099 0.992 -0.702 -0.626 -4.702
0.39484112499999924 0.105 -0.099 0.973 -2.664 -0.855 -4.847
0.4021171670000001 0.087 -0.109 0.975 -2.42 -1.107 -4.878
0.41412658300000516 0.077 -0.116 0.979 -0.092 -1.275 -4.855
0.42170329200000367 0.081 -0.121 0.985 2.847 -2.527 -6.069
0.4336685000000031 0.099 -0.096 0.994 3.527 -2.641 -6.542
0.44128883300000155 0.101 -0.09 0.979 3.214 -1.687 -7.42
0.45320254199999965 0.088 -0.085 0.972 2.107 -1.321 -8.153
0.460794583000002 0.085 -0.085 0.982 0.115 -1.023 -9.107
0.4728267079999995 0.065 -0.103 0.984 -2.183 -0.023 -7.672
0.485067542000003 0.031 -0.098 0.98 -3.397 1.351 -6.771
0.4923709580000022 -0.008 -0.086 0.983 -5.908 0.863 -6.595
0.5044305830000013 -0.053 -0.062 0.997 -11.466 1.16 -6.595
0.5114501250000032 -0.13 -0.068 1.05 -18.573 2.435 -4.962
0.5234795000000005 -0.231 -0.096 1.109 -33.443 6.511 -1.618
0.5307652500000017 -0.347 -0.036 1.129 -40.145 12.916 3.481
0.5428324579999995 -0.53 0.022 1.011 -49.534 10.038 1.405
0.5551009170000043 -0.683 0.033 0.973 -47.985 3.282 -2.198
0.563839625 -0.835 -0.054 1.001 -38.412 -1.481 -0.893
0.574296375000003 -0.96 -0.175 1.016 -9.588 -2.198 9.351
0.5815457500000036 -1.091 -0.215 0.94 34.252 -1.221 15.817
0.5935096250000029 -1.112 -0.205 0.902 76.458 1.542 20.672
0.6008250420000039 -1.063 -0.22 0.906 127.618 1.221 18.893
0.6129270420000026 -0.975 -0.16 0.823 180.832 6.13 28.489
0.624940708000004 -0.898 -0.098 0.768 209.885 -8.893 34.359
0.631978457999999 -0.66 -0.044 0.711 190.443 -54.939 65.573
0.6437938750000001 -0.469 0.143 0.752 155.458 -47.038 38.489
0.6511588750000001 -0.284 0.247 0.924 88.542 -45.153 37.481
0.6631795000000054 -0.318 0.118 0.919 19.542 -36.031 42.107
0.6751025830000046 -0.306 0.01 0.945 -35.344 -21.412 48.817
0.6819042079999988 -0.206 0.067 0.716 -72.84 -2.534 49.481
0.6942974580000012 -0.235 -0.096 0.795 -86.29 3.817 32.969
0.7015126249999994 -0.025 0.074 0.702 -89.58 -2.16 33.137
0.7136722079999984 0.075 -0.015 0.78 -86.229 -9.443 49.893
0.7195121250000014 0.067 -0.243 0.911 -51.626 -14.687 59.198
0.7325631670000021 0.17 -0.354 0.917 -20.397 -28.55 63.901
0.7446134999999998 0.449 -0.369 1.01 5.87 -36.038 64.962
0.7518751670000015 0.631 -0.401 1.09 21.71 -30.588 71.198
0.7639612080000049 0.624 -0.509 1.025 28.374 -30.656 70.855
0.7712271250000029 0.792 -0.331 0.997 28.252 -27.412 62.802
0.7832849170000031 0.824 -0.307 0.912 15.809 -30.359 53.55
0.7953312500000038 0.907 -0.177 0.871 -4.702 -23.634 44.191
0.8023370000000014 0.942 -0.068 0.814 -38.344 -12.267 38.901
0.8143630420000036 0.903 -0.025 0.772 -70.389 3.321 29.626
0.8216986669999997 0.88 -0.038 0.806 -107.786 12.183 20.573
0.8334688330000048 0.761 -0.062 0.694 -122.733 16.603 18.084
0.8407563750000051 0.572 -0.237 0.698 -104.084 7.908 16.672
0.852838792 0.532 -0.354 0.757 -75.405 -3.916 17.985
0.8648587500000033 0.549 -0.414 0.84 -46.695 -11.298 19.931
0.8719093750000013 0.602 -0.421 0.869 -25.534 -13.252 29.115
0.8839784580000014 0.621 -0.39 0.852 -15.214 -13.527 32.023
0.891055417000004 0.659 -0.329 0.855 -11.374 -15.29 34.031
0.9030108749999997 0.656 -0.31 0.851 -5.519 -17.115 36.366
0.9150603329999996 0.694 -0.28 0.886 -8.527 -11.863 37.282
0.9223708749999986 0.67 -0.273 0.909 -6.718 -11.092 34.366
0.9343592080000036 0.667 -0.231 0.919 -6.374 -9.87 30.405
0.9416792080000036 0.661 -0.187 0.874 -10.191 -8.595 24.901
0.9536782919999993 0.624 -0.169 0.835 -11.473 -9.298 20.679
0.9608842080000031 0.599 -0.166 0.815 -12.84 -11.244 18.344
0.972864708000003 0.569 -0.201 0.85 -14.16 -11.725 16.588
0.9848525829999986 0.576 -0.158 0.851 -13.756 -9.824 14.534
0.9919524170000003 0.547 -0.116 0.812 -14.595 -7.702 13.038
1.003912542000002 0.527 -0.075 0.802 -16.84 -4.42 10.321
1.0112448329999992 0.53 -0.08 0.816 -20.191 -1.168 6.618
1.0234765830000043 0.503 -0.125 0.848 -22.725 1.099 4.969
1.0307607920000024 0.48 -0.159 0.886 -26.351 3.916 3.282
1.0430902920000023 0.463 -0.196 0.934 -28.244 5.344 2.847
1.0553472080000006 0.435 -0.211 0.951 -30.71 7.931 3.038
1.062650000000005 0.398 -0.227 0.944 -28.42 8.534 1.29
1.074843708000003 0.385 -0.257 0.986 -28.702 8.336 0.282
1.0821312079999998 0.367 -0.258 1.0 -25.046 7.427 -0.702
1.0941490000000016 0.363 -0.252 1.023 -20.748 4.481 -3.634
1.1014680830000003 0.372 -0.243 1.014 -19.099 1.527 -7.947
1.1135145000000009 0.35 -0.243 1.002 -15.885 -4.237 -10.58
1.1252695420000052 0.36 -0.196 1.0 -18.145 -6.435 -13.061
1.1325731250000004 0.341 -0.213 0.996 -20.206 -8.603 -13.939
1.1444645830000013 0.329 -0.238 1.012 -21.916 -8.359 -13.198
1.151738542000004 0.302 -0.247 1.025 -23.588 -7.809 -12.397
1.1635453330000018 0.304 -0.234 1.014 -24.053 -5.366 -11.229
1.1707998750000002 0.27 -0.262 0.996 -22.916 -4.359 -10.618
1.1827826250000015 0.261 -0.265 1.008 -18.954 -5.366 -9.809
1.1948649170000039 0.265 -0.257 1.014 -16.542 -5.13 -9.382
1.2018837500000004 0.275 -0.239 1.028 -13.595 -6.756 -9.885
1.2139396670000053 0.273 -0.241 1.039 -14.435 -7.26 -10.336
1.2212422079999996 0.269 -0.226 1.021 -14.16 -7.695 -9.847
1.2331265830000007 0.259 -0.232 1.019 -14.908 -6.305 -9.802
1.245291250000001 0.265 -0.269 1.027 -19.893 -3.641 -9.931
1.2520965420000039 0.237 -0.283 1.043 -19.168 -1.527 -8.473
1.2642979170000004 0.226 -0.295 1.032 -16.916 -2.901 -7.504
1.2716971250000029 0.245 -0.282 1.038 -15.359 -2.908 -8.595
1.2837372500000015 0.26 -0.262 1.063 -16.977 -2.84 -8.214
1.291046417000004 0.266 -0.254 1.03 -22.366 -0.672 -9.069
1.3028246249999995 0.256 -0.268 1.023 -28.573 -0.817 -12.664
1.314806500000003 0.247 -0.281 1.036 -33.679 -0.198 -15.397
1.3221398750000048 0.226 -0.327 1.026 -32.298 0.489 -14.359
1.3341659579999998 0.213 -0.332 1.027 -24.16 0.275 -11.832
1.341198042000002 0.229 -0.323 1.017 -15.58 -0.611 -11.756
1.3533076670000028 0.259 -0.315 0.995 -11.092 1.198 -12.435
1.3653107080000026 0.283 -0.313 1.015 -8.389 2.595 -12.74
1.3723719999999986 0.289 -0.282 0.987 -8.191 5.0 -12.229
1.384720625 0.278 -0.281 0.978 -7.458 7.679 -12.466
1.391736250000001 0.264 -0.293 0.96 -3.618 7.656 -12.977
1.4039782500000015 0.284 -0.303 0.99 -0.176 8.702 -13.634
1.4109339170000013 0.3 -0.302 1.005 0.0 10.122 -13.84
1.4232712080000027 0.306 -0.293 0.991 0.489 12.0 -13.924
1.430240375000004 0.295 -0.296 0.976 -0.321 15.031 -13.916
1.4424960830000018 0.272 -0.295 0.964 1.679 17.603 -14.786
1.4550897920000025 0.26 -0.301 0.969 3.527 16.397 -14.649
1.4620383749999988 0.253 -0.277 0.971 5.641 16.534 -15.328
1.474258958 0.267 -0.251 0.982 5.916 16.687 -15.985
1.4813027500000047 0.259 -0.225 0.954 3.42 16.725 -17.389
1.4935608330000036 0.258 -0.228 0.944 0.519 16.656 -18.282
1.5006749580000047 0.257 -0.245 0.937 -0.916 16.069 -18.931
1.5129750000000044 0.235 -0.264 0.925 -1.687 15.115 -18.534
1.525077207999999 0.225 -0.303 0.962 0.687 14.382 -18.351
1.532121250000003 0.229 -0.302 0.973 2.275 14.542 -16.611
1.5445729170000035 0.225 -0.269 0.959 1.992 11.863 -16.84
1.551963833000002 0.22 -0.25 0.961 0.221 8.153 -19.71
1.5639995830000046 0.237 -0.231 0.943 -3.878 8.672 -20.649
1.5712517080000055 0.235 -0.237 0.943 -8.26 10.489 -20.481
1.5832937079999994 0.211 -0.25 0.949 -9.84 12.565 -21.527
1.5952756249999993 0.196 -0.278 0.955 -9.168 10.977 -21.786
1.602581458000003 0.185 -0.278 0.95 -7.191 8.916 -23.87
1.6145812080000042 0.195 -0.277 0.95 -5.985 7.374 -24.313
1.6219219580000015 0.205 -0.286 0.962 -6.427 7.603 -23.389
1.634142666999999 0.197 -0.288 0.955 -6.672 8.229 -22.565
1.6414949580000027 0.187 -0.284 0.94 -4.924 8.664 -22.916
1.6535095830000017 0.178 -0.294 0.933 -1.221 7.359 -25.176
1.6607584170000038 0.202 -0.291 0.947 2.435 6.351 -26.603
1.6730060830000042 0.219 -0.276 0.954 3.29 6.053 -26.733
1.6853091669999998 0.244 -0.251 0.948 1.931 6.489 -27.55
1.6925757919999995 0.244 -0.249 0.949 -2.977 7.107 -27.305
1.7046347500000039 0.24 -0.25 0.945 -7.687 9.168 -26.076
1.7117205830000017 0.226 -0.262 0.95 -11.656 13.282 -24.328
1.7236917920000039 0.197 -0.28 0.954 -12.031 13.847 -24.527
1.7307529580000036 0.187 -0.278 0.953 -10.74 12.58 -25.511
1.742673625000002 0.169 -0.289 0.966 -8.725 11.947 -27.038
1.754770833000002 0.171 -0.304 0.971 -4.702 10.687 -28.748
1.761889042 0.192 -0.293 0.987 -4.389 10.58 -29.13
1.7739936250000028 0.184 -0.291 0.973 -5.87 10.611 -28.443
1.7810565830000016 0.172 -0.292 0.955 -6.214 9.802 -27.191
1.7933029580000053 0.158 -0.301 0.941 -5.389 7.748 -27.176
1.8004266670000035 0.149 -0.295 0.959 -4.122 6.008 -27.771
1.812954458 0.159 -0.286 0.978 -3.137 6.504 -27.023
1.8250778750000052 0.146 -0.292 0.969 -1.351 8.0 -26.87
1.832355249999999 0.146 -0.299 0.986 0.244 9.626 -25.634
1.8446307500000003 0.149 -0.31 0.986 -1.58 9.794 -25.634
1.8516623750000036 0.144 -0.311 0.983 -2.756 10.359 -26.763
1.8636840830000025 0.127 -0.323 0.989 -1.084 10.023 -27.031
1.8712658749999989 0.118 -0.326 1.0 3.29 8.588 -27.137
1.8833076250000005 0.121 -0.312 0.987 5.748 7.183 -26.672
1.8907781250000042 0.117 -0.296 0.991 7.061 7.634 -25.183
1.9028006250000047 0.126 -0.277 0.993 7.634 8.901 -24.053
1.9150569170000011 0.12 -0.273 1.0 6.611 10.641 -22.672
1.9223553329999987 0.115 -0.268 0.994 5.282 13.359 -23.214
1.9343945419999997 0.116 -0.254 0.985 3.221 12.718 -24.015
1.9413319579999992 0.102 -0.255 1.009 0.87 13.435 -24.092
1.9535688329999985 0.098 -0.278 1.028 -2.443 13.176 -23.939
1.9608290830000001 0.119 -0.283 1.048 -4.878 15.992 -21.847
1.9728716250000033 0.095 -0.3 1.031 -7.046 18.71 -17.756
1.9850687500000035 0.059 -0.295 1.004 -8.137 17.206 -17.389
1.9918727080000025 0.04 -0.295 1.01 -6.824 15.221 -17.359
2.0041566670000037 0.029 -0.306 1.027 -14.832 14.534 -18.214
