Time AX AY AZ GX GY GZ
0.014089417003560811 -0.045 0.133 1.166 -6.427 52.603 -51.313
0.025951082992833108 -0.059 0.135 1.181 -7.664 51.702 -52.588
0.03308979199209716 -0.079 0.14 1.194 -9.412 49.397 -53.115
0.04519341699779034 -0.116 0.14 1.207 -11.664 44.603 -52.863
0.05696070799604058 -0.12 0.133 1.218 -11.092 38.779 -51.573
0.06380516699573491 -0.08 0.124 1.198 -8.275 37.672 -50.42
0.07599687499168795 -0.027 0.127 1.188 -5.542 42.618 -48.55
0.08331691699277144 0.004 0.135 1.145 -5.252 51.115 -48.008
0.09511712499079295 -0.03 0.134 1.154 -7.427 58.824 -48.489
0.1073504999949364 -0.086 0.124 1.179 -8.695 60.908 -48.107
0.11441404199285898 -0.126 0.118 1.175 -6.656 57.405 -45.695
0.12639433299773373 -0.141 0.116 1.168 -2.985 51.969 -42.153
0.13347741699544713 -0.148 0.117 1.154 0.924 47.244 -38.985
0.14557545799470972 -0.122 0.103 1.119 2.229 46.328 -39.015
0.1527654999954393 -0.094 0.098 1.104 3.053 50.527 -42.977
0.16474666699650697 -0.09 0.11 1.102 3.458 58.435 -48.13
0.17723545800254215 -0.09 0.132 1.104 0.893 64.779 -51.794
0.18397770800220314 -0.137 0.138 1.133 -1.16 67.45 -52.191
0.1960883330029901 -0.18 0.137 1.146 -1.198 64.809 -50.321
0.20282224999391474 -0.2 0.131 1.169 0.328 59.534 -48.008
0.21511454199207947 -0.173 0.125 1.154 1.863 56.641 -47.153
0.22732537500269245 -0.16 0.134 1.128 2.13 56.695 -46.443
0.23438650000025518 -0.173 0.141 1.13 0.664 57.191 -45.985
0.24660116698942147 -0.203 0.129 1.145 0.84 55.603 -44.809
0.2535580419935286 -0.198 0.128 1.121 2.458 54.985 -43.672
0.2661181250005029 -0.194 0.127 1.096 2.687 56.977 -43.664
0.2727892080001766 -0.185 0.114 1.088 2.908 61.176 -45.695
0.28483837499516085 -0.202 0.119 1.079 3.031 64.183 -47.405
0.2968929170019692 -0.219 0.115 1.081 3.244 64.053 -47.588
0.3042129579989705 -0.257 0.122 1.106 3.832 60.511 -45.702
0.3162841669982299 -0.266 0.123 1.106 5.58 55.405 -42.733
0.3233130419976078 -0.263 0.116 1.091 6.183 53.435 -42.779
0.3355970830016304 -0.252 0.113 1.081 6.786 53.557 -44.824
0.342450916999951 -0.24 0.117 1.091 7.061 55.0 -46.55
0.35462783300317824 -0.249 0.137 1.11 7.466 54.458 -47.511
0.3667855419917032 -0.259 0.148 1.098 7.061 53.29 -45.908
0.37394662499718834 -0.265 0.141 1.101 7.237 50.527 -45.229
0.3860405829909723 -0.278 0.153 1.111 7.122 48.618 -44.13
0.3932674579991726 -0.292 0.156 1.123 6.511 46.26 -43.649
0.4054944169911323 -0.302 0.159 1.134 5.336 42.962 -42.779
0.41119604199775495 -0.286 0.154 1.112 4.992 41.519 -42.382
0.4245063749986002 -0.281 0.156 1.087 4.168 41.595 -43.527
0.4365656250010943 -0.278 0.151 1.095 2.87 44.191 -45.344
0.4436034169921186 -0.27 0.16 1.091 1.878 46.939 -47.26
0.4558296250033891 -0.294 0.166 1.08 1.939 47.374 -47.489
0.46302166699024383 -0.32 0.164 1.084 2.053 45.466 -45.939
0.4750891669973498 -0.33 0.16 1.114 3.756 41.496 -44.298
0.4873337500030175 -0.336 0.162 1.099 5.176 37.473 -43.015
0.49419545799901243 -0.311 0.162 1.076 5.42 37.405 -43.359
0.5063422499952139 -0.286 0.148 1.062 4.542 41.168 -45.458
0.5134524579916615 -0.291 0.154 1.071 3.794 44.473 -48.076
0.5256875829945784 -0.296 0.16 1.075 2.695 46.366 -49.168
0.5327892920031445 -0.327 0.182 1.085 1.611 45.55 -47.817
0.5449080830003368 -0.349 0.17 1.094 0.809 42.954 -45.42
0.5570932919945335 -0.345 0.157 1.085 1.076 40.321 -43.427
0.5640253329911502 -0.327 0.139 1.063 2.427 40.779 -43.076
0.5766177499899641 -0.328 0.148 1.053 4.221 43.565 -44.145
0.582937083003344 -0.337 0.145 1.057 5.626 45.595 -44.198
0.5954726670024684 -0.345 0.151 1.053 5.756 46.588 -44.336
0.6023995419964194 -0.364 0.147 1.066 5.511 47.267 -44.939
0.614666458001011 -0.383 0.166 1.091 4.817 46.496 -44.794
0.6267971249908442 -0.387 0.159 1.074 4.298 45.84 -44.611
0.6336857919959584 -0.372 0.152 1.069 3.992 46.427 -45.214
0.6459876250009984 -0.373 0.161 1.061 3.679 47.802 -45.481
0.6528794999903766 -0.381 0.17 1.069 3.015 48.626 -45.969
0.6651165419898462 -0.396 0.184 1.085 2.366 48.328 -45.802
0.6773031670018099 -0.403 0.175 1.076 2.008 49.252 -46.725
0.6843494170025224 -0.404 0.182 1.076 2.443 50.26 -48.412
0.6966094579984201 -0.405 0.182 1.078 3.565 49.954 -49.191
0.7034819580003386 -0.388 0.197 1.064 3.817 49.679 -48.099
0.7156769169960171 -0.376 0.197 1.068 3.634 49.687 -46.443
0.7224933329998748 -0.394 0.205 1.079 3.985 48.634 -43.214
0.7350469169905409 -0.401 0.195 1.065 3.557 47.412 -40.672
0.7470722500002012 -0.414 0.187 1.057 2.0 48.45 -41.115
0.7540288750024047 -0.416 0.188 1.06 -0.336 51.137 -43.221
0.7662266669940436 -0.436 0.174 1.046 -2.351 54.542 -46.588
0.7728697919956176 -0.458 0.173 1.057 -2.679 55.153 -48.924
0.7849362499982817 -0.457 0.179 1.045 -2.427 54.099 -48.611
0.7971651669940911 -0.445 0.17 1.038 -1.656 53.321 -46.916
0.8043644169956679 -0.448 0.174 1.026 -0.26 51.771 -44.634
0.8162187080015428 -0.447 0.16 1.01 0.824 51.13 -43.153
0.8234960830013733 -0.447 0.16 1.009 0.466 52.176 -43.878
0.8353799999895273 -0.441 0.163 0.978 -0.221 55.832 -45.595
0.8425341669935733 -0.448 0.175 0.98 -1.771 59.351 -48.122
0.8544487920007668 -0.467 0.169 0.999 -2.466 60.443 -48.733
0.8664616669993848 -0.481 0.184 1.01 -2.885 58.542 -47.618
0.8734388329903595 -0.521 0.159 1.026 -0.824 54.16 -45.626
0.8855307079938939 -0.522 0.173 1.02 2.939 49.55 -43.618
0.8927264579979237 -0.492 0.172 0.979 4.664 49.893 -44.099
0.9049319170007948 -0.482 0.181 0.979 5.023 53.542 -46.298
0.9169368750008289 -0.481 0.198 0.984 3.908 56.412 -47.695
0.9241959579958348 -0.513 0.212 1.007 2.344 54.656 -46.962
0.936041708002449 -0.535 0.217 1.034 -0.634 50.313 -44.359
0.9431015419977484 -0.538 0.222 1.043 -3.183 46.26 -42.702
0.9550610829901416 -0.515 0.21 1.002 -5.763 45.733 -43.458
0.9673030419944553 -0.482 0.188 0.99 -7.702 49.351 -45.641
0.974131374998251 -0.481 0.177 0.97 -8.244 52.71 -47.0
0.9864189579966478 -0.507 0.169 0.961 -7.588 53.389 -46.908
0.9931804579973686 -0.521 0.168 0.963 -5.794 51.229 -45.053
1.0053366249921964 -0.53 0.18 0.938 -4.565 49.382 -41.786
1.0111424999922747 -0.528 0.165 0.945 -2.725 47.733 -39.847
1.024510041999747 -0.539 0.169 0.921 -2.588 48.489 -39.58
1.0365282499988098 -0.539 0.154 0.928 -2.588 50.29 -41.336
1.0432057919970248 -0.559 0.152 0.936 -2.168 50.977 -42.832
1.0558011249959236 -0.584 0.16 0.943 -1.977 49.382 -43.366
1.0625361249985872 -0.58 0.166 0.928 -2.55 48.511 -43.107
1.0746838329941966 -0.564 0.172 0.941 -3.298 48.733 -42.939
1.086580666989903 -0.566 0.165 0.939 -3.313 49.153 -43.061
1.0936116249940824 -0.575 0.171 0.917 -4.443 49.977 -42.916
1.105445833003614 -0.573 0.161 0.927 -5.153 51.16 -42.405
1.1128143749956507 -0.59 0.155 0.927 -4.611 49.733 -41.649
1.12448758300161 -0.613 0.161 0.919 -4.656 47.687 -39.13
1.1367691249906784 -0.603 0.151 0.904 -3.962 47.885 -37.87
1.1436773329915013 -0.612 0.141 0.864 -4.0 50.885 -39.008
1.1557147499988787 -0.607 0.119 0.858 -4.534 56.458 -42.443
1.162742624990642 -0.637 0.119 0.878 -4.863 61.137 -46.687
1.1749513749964535 -0.663 0.145 0.881 -5.58 61.16 -48.641
1.1870098329964094 -0.683 0.146 0.896 -4.756 56.718 -47.939
1.1939385419973405 -0.679 0.149 0.916 -2.229 51.855 -45.794
1.2061502919968916 -0.666 0.155 0.89 0.878 47.672 -44.168
1.2132175829901826 -0.625 0.171 0.873 2.061 48.137 -43.763
1.225309457993717 -0.586 0.177 0.85 1.748 52.664 -45.321
1.2311110000009649 -0.597 0.185 0.855 0.458 57.252 -46.786
1.2444983750028769 -0.621 0.199 0.867 -1.046 60.679 -47.0
1.2565830829989864 -0.642 0.2 0.865 -4.389 64.802 -48.458
1.263541249994887 -0.669 0.188 0.9 -6.466 65.824 -49.519
1.2757372499909252 -0.687 0.189 0.877 -7.458 63.954 -48.191
1.2822250829922268 -0.71 0.16 0.859 -6.58 60.305 -46.061
1.2945183330011787 -0.684 0.148 0.839 -3.748 59.947 -44.374
1.3065495829941938 -0.69 0.132 0.828 -0.87 60.939 -44.893
1.3137090829986846 -0.699 0.138 0.814 2.183 61.29 -45.344
1.3260349579941249 -0.694 0.151 0.821 3.733 61.496 -45.649
1.3331802079919726 -0.707 0.167 0.819 3.412 61.115 -45.939
1.3452273750008317 -0.719 0.166 0.824 2.939 60.443 -45.916
1.3573830419918522 -0.689 0.175 0.813 0.267 63.252 -47.45
1.3642331669980194 -0.673 0.153 0.789 -2.298 68.969 -50.74
1.3763829169911332 -0.681 0.156 0.78 -4.702 73.672 -53.481
1.383258082991233 -0.713 0.161 0.791 -5.679 73.527 -53.221
1.3953818750014761 -0.742 0.167 0.801 -4.076 66.687 -49.145
1.407363082995289 -0.725 0.156 0.765 -2.305 61.13 -43.756
1.4145621249917895 -0.706 0.14 0.734 -1.053 62.046 -41.939
1.4263611670030514 -0.719 0.139 0.703 -0.198 65.634 -42.26
1.4334770830027992 -0.733 0.135 0.711 0.542 70.42 -44.824
1.445746457990026 -0.761 0.144 0.727 1.557 73.824 -48.847
1.4523714999959338 -0.758 0.155 0.714 0.679 77.725 -52.328
1.464907832996687 -0.755 0.156 0.739 1.229 79.084 -54.168
1.4771037500031525 -0.768 0.175 0.733 1.206 77.344 -53.466
1.4840017919923412 -0.792 0.187 0.733 0.916 72.626 -49.359
1.4960532499972032 -0.811 0.193 0.734 1.023 65.214 -44.565
1.5033850420004455 -0.791 0.161 0.713 2.466 62.557 -42.023
1.5154692079959204 -0.764 0.141 0.653 3.527 67.107 -45.237
1.5224147080007242 -0.75 0.147 0.627 2.573 74.87 -50.351
1.5347375830024248 -0.76 0.14 0.635 2.771 81.916 -55.229
1.546890750003513 -0.777 0.155 0.648 2.74 84.656 -57.092
1.553829541997402 -0.793 0.165 0.662 3.672 81.298 -54.794
1.565888166995137 -0.77 0.172 0.651 4.298 76.595 -50.603
1.573115916995448 -0.742 0.188 0.639 4.687 75.664 -45.466
1.5849121249921154 -0.765 0.194 0.625 3.244 76.939 -40.992
1.597123500003363 -0.825 0.189 0.644 2.397 76.191 -37.328
1.6045359580020886 -0.856 0.166 0.612 0.489 78.351 -37.824
1.6162144580011955 -0.879 0.143 0.609 -1.504 82.672 -42.496
1.6237849169992842 -0.896 0.141 0.598 -2.527 84.954 -47.641
1.6353909579920582 -0.88 0.142 0.591 -4.046 87.137 -51.931
1.6424702919903211 -0.861 0.142 0.579 -4.45 88.916 -54.756
1.6544342499983031 -0.851 0.149 0.565 -5.092 91.046 -55.191
1.6665021249937126 -0.85 0.161 0.553 -5.847 90.435 -53.336
1.6731847079936415 -0.862 0.15 0.548 -4.519 88.008 -49.298
1.6854564999957802 -0.866 0.141 0.503 -4.145 89.573 -47.878
1.6942446670000209 -0.875 0.141 0.472 -9.939 94.802 -51.687
1.704398374989978 -0.88 0.126 0.481 -17.939 99.901 -58.901
1.7166411249927478 -0.856 0.137 0.458 -26.672 106.511 -68.046
1.7233192499988945 -0.86 0.124 0.469 -34.366 113.397 -76.443
1.7351527080027154 -0.848 0.153 0.434 -40.87 117.29 -79.847
1.7469363749987679 -0.849 0.16 0.421 -48.282 120.107 -78.802
1.7539220829930855 -0.9 0.147 0.453 -50.405 117.336 -74.031
1.7659245830000145 -0.95 0.111 0.443 -46.832 111.115 -64.763
1.7725743749906542 -0.979 0.075 0.455 -37.038 104.206 -57.168
1.7845027500006836 -1.005 0.042 0.41 -26.542 99.977 -53.374
1.7966144579986576 -1.009 0.022 0.37 -17.878 98.748 -55.305
1.8032744999945862 -0.981 0.021 0.319 -10.71 100.374 -59.282
1.8153614170005312 -0.94 0.052 0.291 -6.427 106.153 -62.748
1.8213639579917071 -0.95 0.072 0.257 -4.435 110.412 -63.565
1.8344494170014514 -0.992 0.072 0.288 -1.863 109.824 -61.061
1.8465217079938157 -1.02 0.039 0.307 4.191 104.756 -55.015
1.853468832996441 -1.043 0.008 0.326 15.58 96.221 -48.122
1.865334874994005 -1.052 0.011 0.323 28.107 86.115 -41.779
1.8720677079982124 -1.058 0.057 0.264 31.695 75.366 -39.496
1.8842943749914411 -0.994 0.108 0.238 20.74 69.084 -44.183
1.8964176250010496 -0.917 0.132 0.22 -0.145 76.443 -53.313
1.9035782499995548 -0.895 0.138 0.225 -17.817 86.374 -60.458
1.9152157499920577 -0.858 0.119 0.243 -24.992 99.481 -62.298
1.9273297079926124 -0.929 0.096 0.22 -25.053 107.038 -61.13
1.9341774999920744 -0.981 0.112 0.191 -20.634 110.237 -56.527
1.9460617079894291 -0.99 0.096 0.193 -12.344 110.229 -50.55
1.9530385419930099 -1.031 0.074 0.199 0.168 108.527 -45.71
1.9650337920029415 -1.085 0.057 0.18 10.611 103.069 -43.084
1.9770428329939023 -1.121 0.069 0.2 19.45 90.939 -40.221
1.9841367920016637 -1.096 0.056 0.197 24.481 80.954 -38.366
1.9960467079945374 -1.103 0.071 0.201 24.603 71.992 -37.405
2.00331262499094 -1.133 0.072 0.21 22.137 61.542 -35.954
2.015105541999219 -1.103 0.065 0.206 18.565 54.496 -36.588
2.0272169999952894 -1.076 0.078 0.156 10.534 50.198 -40.893
2.034139374998631 -1.005 0.115 0.112 -1.595 51.351 -46.901
2.046616166990134 -0.948 0.084 0.098 -7.344 55.748 -51.763
2.0532401249947725 -0.984 0.081 0.124 -6.824 52.573 -53.466
2.065389249997679 -1.0 0.071 0.13 -3.366 42.496 -48.786
2.072616791992914 -0.969 0.051 0.098 2.031 31.786 -43.069
2.084630750003271 -0.967 0.048 0.088 5.611 23.244 -39.71
2.0967823329992825 -0.962 0.052 0.086 7.435 16.168 -37.519
2.1036384999897564 -0.942 0.052 0.081 6.107 14.107 -38.55
2.1158579170005396 -0.935 0.067 0.077 3.206 15.489 -41.412
2.1225942079909146 -0.946 0.066 0.105 0.13 15.122 -42.87
2.1352844999928493 -0.976 0.077 0.104 -3.061 12.16 -43.511
2.147240124992095 -0.992 0.078 0.091 -6.695 8.893 -43.397
2.1541104579955572 -0.984 0.061 0.062 -7.84 4.84 -42.779
2.1662438749917783 -0.923 0.063 0.018 -8.282 6.076 -43.763
2.173352291996707 -0.927 0.058 0.035 -5.679 6.611 -44.26
2.18561420799233 -0.946 0.04 0.065 -1.107 3.313 -43.405
2.192789749999065 -0.951 0.056 0.055 3.137 -1.664 -42.16
2.20492533298966 -0.953 0.064 0.078 6.763 -7.893 -40.672
2.216770541999722 -0.922 0.066 0.077 8.038 -11.527 -39.328
2.223914041998796 -0.907 0.067 0.085 8.313 -13.412 -38.725
2.2357566249993397 -0.933 0.069 0.101 8.573 -16.641 -36.779
2.2433229579910403 -0.942 0.062 0.128 9.122 -19.092 -35.763
2.2548545000026934 -0.982 0.071 0.163 10.206 -21.885 -35.305
2.266973457997665 -0.992 0.079 0.152 9.031 -22.481 -35.84
2.273943958003656 -0.993 0.055 0.169 4.985 -17.771 -40.313
2.286218583001755 -1.039 0.051 0.197 1.176 -20.153 -44.092
2.2928914169897325 -1.069 0.052 0.232 -1.191 -31.275 -43.427
2.304682874993887 -1.079 0.079 0.211 -1.298 -47.305 -39.405
2.3167547920020297 -1.057 0.107 0.161 -0.954 -65.145 -31.313
2.323667958000442 -1.005 0.101 0.122 2.26 -76.023 -22.466
2.335835291989497 -1.014 0.087 0.108 6.466 -83.084 -15.794
2.3428050829970744 -1.009 0.093 0.07 4.74 -85.366 -14.359
2.3549828749964945 -0.939 0.033 0.08 3.718 -74.878 -20.756
2.3670571249967907 -0.878 0.018 0.118 3.397 -56.511 -33.389
2.373757499997737 -0.907 0.044 0.182 1.374 -45.626 -45.061
2.3860644999949727 -0.972 0.075 0.271 -1.985 -45.87 -50.336
2.3928064170031575 -1.001 0.1 0.32 -4.115 -54.397 -49.45
2.405052667003474 -1.0 0.103 0.362 -3.092 -67.382 -43.489
2.4170749170007184 -1.007 0.098 0.391 2.023 -84.809 -34.679
2.424001124993083 -1.013 0.109 0.385 7.313 -103.611 -25.519
2.435896583003341 -1.004 0.096 0.36 9.13 -115.779 -19.74
2.442553417000454 -0.99 0.076 0.378 11.832 -122.107 -18.198
2.4546041669964325 -0.987 0.093 0.38 12.305 -128.931 -20.031
2.4665363329986576 -0.985 0.11 0.383 8.26 -133.573 -24.275
2.473484832997201 -0.909 0.116 0.386 2.183 -128.42 -31.985
2.485347207999439 -0.858 0.116 0.403 -2.221 -115.618 -39.405
2.4973145830008434 -0.874 0.125 0.479 -3.084 -103.847 -43.45
2.5041303749894723 -0.929 0.146 0.529 -3.168 -103.725 -42.344
2.5160680830013007 -0.969 0.139 0.575 -0.969 -111.573 -37.206
2.523058791994117 -0.999 0.104 0.613 4.0 -125.885 -31.832
