Time AX AY AZ GX GY GZ
0.014263791003031656 0.037 0.187 1.213 -4.595 51.626 -51.74
0.02654254100343678 0.046 0.184 1.199 -2.885 50.42 -49.977
0.03327529100351967 0.063 0.192 1.178 -2.221 51.008 -49.145
0.04548908300057519 0.064 0.196 1.16 -3.45 55.809 -49.542
0.05252275000384543 0.061 0.192 1.171 -4.771 59.908 -51.084
0.0645918329973938 0.042 0.197 1.174 -6.229 62.45 -51.534
0.07688987499568611 0.024 0.191 1.185 -7.221 62.733 -51.107
0.08412279099866282 0.013 0.194 1.176 -7.26 62.794 -50.16
0.09605408299830742 -0.003 0.19 1.174 -7.084 61.947 -48.573
0.10295904100348707 -0.014 0.185 1.17 -5.885 60.015 -46.992
0.11479537500417791 -0.031 0.177 1.169 -4.74 58.557 -46.053
0.12711849999323022 -0.03 0.17 1.161 -3.137 58.038 -46.389
0.13416745800350327 -0.038 0.181 1.153 -1.534 56.763 -46.855
0.14613045800069813 -0.023 0.185 1.164 -0.275 56.557 -46.588
0.15330066600290593 -0.021 0.192 1.163 0.588 57.046 -46.244
0.16559216599853244 -0.018 0.199 1.154 0.496 58.931 -45.817
0.17239887500181794 -0.008 0.189 1.148 -0.687 63.191 -46.237
0.18468983299680986 -0.026 0.195 1.141 -3.443 67.855 -48.153
0.19651816600526217 -0.057 0.188 1.156 -5.931 70.695 -48.748
0.20365433300321456 -0.085 0.184 1.18 -6.489 69.214 -47.672
0.2155452909937594 -0.121 0.189 1.2 -4.649 63.351 -44.16
0.2225954159948742 -0.125 0.18 1.177 -2.267 57.496 -41.137
0.23461812500318047 -0.125 0.172 1.154 -0.153 54.244 -40.031
0.2467360830050893 -0.114 0.17 1.132 0.962 54.412 -40.84
0.25376529099594336 -0.101 0.166 1.131 1.137 57.588 -43.55
0.26587195800675545 -0.096 0.181 1.122 0.145 61.718 -45.534
0.2726737500051968 -0.107 0.185 1.121 -1.038 65.489 -46.458
0.28504091600188985 -0.137 0.186 1.135 -2.336 67.298 -47.504
0.29716012500284705 -0.153 0.188 1.143 -2.84 66.809 -47.237
0.3042005409952253 -0.165 0.189 1.146 -3.046 64.344 -46.321
0.3162214159965515 -0.176 0.184 1.145 -2.55 61.374 -45.008
0.32281199999852106 -0.178 0.181 1.14 -1.802 58.359 -43.84
0.3352473330014618 -0.176 0.18 1.135 -0.977 56.802 -43.076
0.3471263329993235 -0.173 0.177 1.109 -0.786 57.695 -43.779
0.3544194160058396 -0.159 0.168 1.106 -1.351 61.244 -45.794
0.366219582996564 -0.17 0.173 1.103 -2.099 64.153 -46.664
0.37329354099347256 -0.185 0.164 1.105 -3.351 64.794 -46.397
0.3854047500062734 -0.206 0.163 1.126 -2.84 64.237 -45.763
0.392482374998508 -0.221 0.175 1.122 -1.099 62.893 -45.244
0.40458579099504277 -0.217 0.178 1.122 0.069 61.267 -44.305
0.4169415829965146 -0.203 0.178 1.108 0.405 60.397 -43.137
0.42356008299975656 -0.205 0.181 1.103 0.137 61.496 -42.42
0.43575579099706374 -0.22 0.181 1.112 -0.954 63.214 -43.298
0.44268212499446236 -0.225 0.184 1.126 -1.924 63.908 -44.321
0.45500491600250825 -0.229 0.181 1.116 -2.947 65.55 -45.298
0.4670117079949705 -0.235 0.179 1.099 -3.702 66.031 -45.206
0.47388049999426585 -0.27 0.187 1.114 -4.45 64.275 -43.649
0.485927540998091 -0.289 0.177 1.112 -4.374 62.13 -41.382
0.4928158330003498 -0.299 0.174 1.107 -3.802 60.931 -41.412
0.5052259160001995 -0.301 0.169 1.104 -2.573 61.351 -42.809
0.5169674579956336 -0.285 0.169 1.088 -2.084 63.153 -45.534
0.5243775410053786 -0.268 0.172 1.05 -2.916 68.16 -47.298
0.5360004999965895 -0.273 0.166 1.056 -4.16 73.389 -48.924
0.543067249993328 -0.316 0.158 1.079 -3.664 73.603 -48.153
0.5548601659975247 -0.358 0.158 1.084 -1.55 68.16 -44.466
0.5672194579965435 -0.372 0.157 1.077 0.588 60.763 -41.023
0.5740525409928523 -0.38 0.167 1.065 1.847 54.496 -39.099
0.5863834159972612 -0.366 0.168 1.042 1.802 53.847 -39.427
0.5934368750022259 -0.352 0.169 1.029 0.229 56.588 -42.16
0.6056481660052668 -0.361 0.183 1.034 0.084 60.725 -45.893
0.6127589579991763 -0.365 0.184 1.051 1.092 64.115 -48.733
0.624651249992894 -0.352 0.201 1.046 1.076 67.13 -50.168
0.6368929580057738 -0.356 0.209 1.058 0.618 69.076 -49.71
0.6441645000013523 -0.37 0.209 1.065 0.031 69.939 -48.183
0.6563227500009816 -0.403 0.207 1.08 -0.214 66.412 -46.527
0.6631602499983273 -0.415 0.204 1.071 -0.168 61.344 -44.489
0.6752779579983326 -0.399 0.187 1.063 0.328 57.672 -43.359
0.6824190829938743 -0.386 0.178 1.022 1.038 56.802 -42.656
0.6946428329974879 -0.374 0.174 0.997 0.176 61.328 -44.137
0.7064875829964876 -0.388 0.172 0.996 -1.0 67.382 -46.061
0.7135959159932099 -0.418 0.178 0.995 -0.924 71.336 -47.672
0.7255724999995437 -0.455 0.175 1.009 -0.107 72.595 -48.824
0.7327362910000375 -0.466 0.185 1.019 0.336 71.954 -49.443
0.7447994579997612 -0.478 0.184 1.034 0.115 71.473 -50.145
0.7568792499951087 -0.475 0.189 1.034 -0.336 68.466 -49.656
0.7636139579990413 -0.475 0.189 1.027 -0.26 65.481 -48.321
0.7760014999948908 -0.473 0.181 1.007 -0.115 64.206 -47.237
0.7830978749989299 -0.475 0.167 0.978 -0.237 65.863 -47.992
0.7950692080048611 -0.476 0.167 0.967 0.336 68.282 -49.908
0.807205666002119 -0.461 0.176 0.963 0.359 72.374 -51.198
0.8141730409988668 -0.462 0.177 0.947 -0.977 76.756 -52.649
0.8262306249962421 -0.477 0.192 0.971 -1.359 78.55 -52.137
0.8331779580039438 -0.488 0.214 1.001 -0.863 76.595 -49.214
0.8453806250035996 -0.517 0.229 1.011 -1.496 73.122 -44.939
0.8511348750034813 -0.56 0.221 1.013 -2.389 67.771 -40.603
0.8643439580046106 -0.594 0.201 0.993 -2.855 62.947 -38.053
0.8765090829983819 -0.601 0.184 0.975 -3.305 60.466 -38.45
0.8833566660032375 -0.584 0.166 0.958 -3.466 60.122 -40.962
0.8956566660053795 -0.574 0.164 0.935 -2.473 61.023 -43.481
0.902549040998565 -0.555 0.169 0.909 -2.496 63.992 -45.405
0.9143571659951704 -0.54 0.174 0.906 -3.023 68.183 -46.794
0.9265426250058226 -0.569 0.175 0.913 -2.282 69.733 -46.58
0.9337455000058981 -0.611 0.186 0.921 -1.29 67.328 -45.863
0.9453717910073465 -0.641 0.178 0.934 -0.702 65.061 -44.802
0.9528884159954032 -0.65 0.182 0.929 -0.649 62.183 -45.725
0.9645811249938561 -0.656 0.177 0.924 -1.557 60.427 -47.244
0.9767271250020713 -0.649 0.174 0.925 -2.649 58.466 -49.328
0.9834593330015196 -0.644 0.156 0.921 -1.519 57.481 -50.618
0.9957709580048686 -0.608 0.175 0.884 -0.863 59.015 -51.244
1.0027212080021854 -0.589 0.183 0.865 -2.305 61.809 -51.305
1.0147432910016505 -0.577 0.181 0.868 -4.137 65.061 -50.893
1.0270013330009533 -0.615 0.179 0.869 -5.282 64.008 -48.244
1.0338903329975437 -0.641 0.172 0.885 -4.511 59.328 -43.511
1.0461507080035517 -0.669 0.161 0.854 -2.603 53.855 -39.931
1.0527943750057602 -0.693 0.148 0.843 -0.809 50.817 -38.603
1.0649446659954265 -0.688 0.143 0.809 -0.519 50.466 -39.733
1.0768080830021063 -0.665 0.13 0.783 -1.382 53.802 -43.534
1.083956707996549 -0.66 0.124 0.772 -2.061 59.076 -47.397
1.0959060830064118 -0.673 0.131 0.772 -2.137 63.023 -49.16
1.1033813749963883 -0.687 0.133 0.793 -1.244 65.053 -49.16
1.115323082995019 -0.698 0.128 0.801 0.855 64.481 -48.626
1.1211032080027508 -0.712 0.147 0.812 3.282 62.053 -47.374
1.1343721250013914 -0.712 0.154 0.8 4.824 61.687 -46.511
1.1465211659960914 -0.709 0.159 0.808 4.282 63.145 -48.13
1.1536395830044057 -0.702 0.165 0.798 3.466 66.389 -50.435
1.1657929579960182 -0.701 0.172 0.785 1.969 70.718 -53.099
1.1728586249955697 -0.711 0.173 0.786 0.817 73.16 -54.557
1.1851861250033835 -0.718 0.17 0.794 0.901 72.802 -53.924
1.1971825410000747 -0.739 0.167 0.787 1.84 69.931 -52.084
1.204067832994042 -0.756 0.165 0.79 4.145 66.489 -49.29
1.2163230409933021 -0.77 0.16 0.771 6.656 64.008 -47.672
1.2233544159971643 -0.769 0.157 0.763 8.489 63.427 -48.061
1.2355738329933956 -0.764 0.146 0.758 9.756 64.435 -49.847
1.2427081659989199 -0.754 0.161 0.724 9.42 66.275 -52.87
1.2549870829971042 -0.744 0.172 0.7 7.053 69.947 -56.305
1.2669726659951266 -0.726 0.17 0.713 5.046 73.969 -59.672
1.2738097910041688 -0.743 0.193 0.716 3.244 76.595 -60.008
1.2861247079999885 -0.776 0.2 0.744 1.687 74.962 -58.008
1.2931505830056267 -0.801 0.197 0.737 1.115 69.496 -54.435
1.3051555830024881 -0.786 0.178 0.72 1.031 66.641 -52.298
1.3126004579971777 -0.774 0.184 0.682 0.931 66.885 -52.366
1.3245790829969337 -0.752 0.189 0.647 0.267 71.794 -53.611
1.3365327079955023 -0.74 0.18 0.644 -0.405 77.504 -55.519
1.343456165996031 -0.754 0.191 0.649 -1.779 82.038 -56.015
1.3555373749986757 -0.761 0.182 0.657 -2.038 84.084 -56.061
1.3627073329989798 -0.768 0.186 0.646 -2.038 84.534 -54.382
1.3746846660069423 -0.785 0.181 0.637 -1.916 83.267 -52.313
1.3866399160033325 -0.801 0.188 0.607 -1.832 83.099 -50.084
1.3933677909953985 -0.794 0.175 0.598 -3.336 86.573 -49.954
1.4056019580020802 -0.805 0.149 0.576 -4.687 90.847 -51.748
1.4129013750061858 -0.807 0.145 0.572 -4.763 94.863 -54.061
1.4248906249995343 -0.8 0.151 0.533 -5.87 100.817 -57.298
1.4367287079949165 -0.794 0.152 0.526 -6.687 108.947 -59.527
1.443667125000502 -0.818 0.162 0.533 -6.71 113.351 -60.313
1.4557527080032742 -0.848 0.164 0.533 -6.664 114.015 -59.496
1.4625494579959195 -0.865 0.163 0.536 -6.855 113.191 -58.42
1.4745537910057465 -0.87 0.156 0.526 -6.611 112.206 -58.725
1.4865053329995135 -0.878 0.141 0.506 -7.168 113.901 -60.244
1.4934346660011215 -0.857 0.137 0.438 -9.16 120.603 -64.435
1.5053099159995327 -0.85 0.134 0.41 -10.718 129.237 -67.733
1.517209500001627 -0.853 0.134 0.392 -13.916 137.107 -69.168
1.5242075410060352 -0.896 0.118 0.407 -15.832 141.237 -68.061
1.5360023749963148 -0.955 0.109 0.411 -15.405 137.916 -65.275
1.5424875830067322 -0.982 0.1 0.404 -11.855 134.168 -64.466
1.5549014580028597 -0.984 0.111 0.372 -9.931 129.962 -65.328
1.566735125001287 -0.936 0.114 0.367 -9.382 128.794 -69.519
1.5734705829963787 -0.965 0.16 0.319 -11.252 129.611 -68.305
1.585456457993132 -0.908 0.148 0.33 -13.069 130.618 -70.473
1.5911586659931345 -0.932 0.169 0.304 -14.481 134.389 -68.969
1.6041055410023546 -0.95 0.171 0.358 -13.313 133.832 -64.588
1.6160734159930144 -0.997 0.176 0.352 -13.229 129.557 -60.076
1.6230691249947995 -1.046 0.15 0.352 -14.794 123.794 -55.847
1.6348528749949764 -1.079 0.143 0.359 -17.023 113.328 -52.924
1.6466887499991572 -1.081 0.113 0.314 -19.634 105.687 -50.87
1.6538331659976393 -1.06 0.104 0.269 -24.687 101.496 -49.832
1.6656391249998705 -1.066 0.079 0.236 -29.107 96.473 -47.412
1.6723556659999304 -1.091 0.033 0.2 -31.176 88.557 -43.366
1.68432733300142 -1.119 0.011 0.186 -27.878 78.038 -38.748
1.6965013330045622 -1.108 -0.003 0.156 -25.382 69.618 -35.664
1.7032215829967754 -1.102 0.0 0.127 -23.191 59.71 -33.618
1.715040915994905 -1.072 -0.013 0.103 -22.031 55.252 -32.992
1.7269713330024388 -1.077 -0.018 0.079 -20.901 51.992 -34.26
1.7338431249954738 -1.107 -0.029 0.084 -19.29 47.893 -37.771
1.7457599579938687 -1.094 -0.034 0.069 -17.015 46.511 -43.076
1.752698500000406 -1.052 -0.044 0.045 -14.702 45.183 -50.275
1.764707708003698 -1.002 -0.026 0.012 -13.336 43.672 -54.779
1.776686957993661 -0.975 -0.04 0.018 -9.992 42.107 -55.137
1.7833899580000434 -0.979 -0.035 0.043 -5.389 37.237 -52.458
1.7955709999951068 -1.009 -0.02 0.081 2.573 28.672 -47.718
1.8024578750046203 -0.99 0.007 0.071 8.641 21.458 -45.298
1.814732750004623 -0.947 0.039 0.037 8.267 20.687 -46.687
1.8267703330056975 -0.89 0.054 0.027 6.26 24.832 -49.405
1.8338975829974515 -0.874 0.073 0.066 4.092 27.511 -50.771
1.84602804100723 -0.909 0.078 0.086 2.031 25.893 -49.031
1.8530132080049952 -0.918 0.079 0.102 0.16 21.397 -47.099
1.8649952910054708 -0.944 0.08 0.105 -1.153 16.061 -45.252
1.8771181250049267 -0.943 0.088 0.092 -3.328 11.191 -43.824
1.8843237080000108 -0.942 0.078 0.091 -3.321 6.954 -42.061
1.8966740829928312 -0.942 0.094 0.039 -2.366 6.023 -41.16
1.9034597910067532 -0.923 0.07 0.045 -1.58 8.771 -41.489
1.9157325830019545 -0.98 0.071 0.064 0.321 7.977 -41.023
1.9228995830053464 -0.996 0.057 0.068 2.435 3.748 -38.672
1.9351836660061963 -1.014 0.024 0.072 4.71 0.794 -38.282
1.9472181659948546 -1.008 0.038 0.089 5.725 -2.656 -38.679
1.9543400830007158 -0.958 0.015 0.066 5.443 -2.29 -42.672
1.9664847910025856 -0.881 0.046 0.063 2.962 4.687 -49.015
1.973554583004443 -0.872 0.077 0.088 1.145 9.321 -51.855
1.9859699999942677 -0.903 0.098 0.122 0.45 7.42 -48.672
1.99301762500545 -0.958 0.097 0.136 1.305 0.87 -42.153
2.0050281659932807 -0.983 0.075 0.145 3.374 -8.344 -36.466
2.017191749997437 -0.984 0.061 0.13 5.435 -12.863 -32.573
2.024276625001221 -0.981 0.042 0.134 8.565 -15.168 -31.122
2.0362570410070475 -0.959 0.064 0.081 7.229 -12.031 -34.504
2.0434650410024915 -0.909 0.048 0.069 1.046 -0.863 -42.0
2.055638000005274 -0.906 0.062 0.114 -3.756 6.947 -48.611
2.0622882500028936 -0.929 0.074 0.157 -4.504 7.878 -49.817
2.074636040997575 -0.974 0.083 0.168 -2.954 1.969 -45.947
2.0866457499942044 -1.008 0.095 0.208 0.985 -9.527 -38.45
2.0938848329969915 -1.017 0.09 0.208 5.733 -21.015 -31.313
2.105910333004431 -1.039 0.073 0.218 11.26 -27.466 -27.084
2.1127074579999316 -1.034 0.066 0.176 14.443 -27.656 -27.176
2.1246138330025133 -1.008 0.083 0.176 12.931 -22.641 -31.763
2.136810208001407 -0.983 0.093 0.192 9.336 -17.634 -38.145
2.1436859579989687 -0.975 0.117 0.231 4.45 -15.397 -43.626
2.1557049580005696 -0.971 0.15 0.259 0.672 -16.641 -45.145
2.162724124995293 -0.941 0.184 0.224 -5.779 -19.939 -42.466
2.174594790994888 -0.898 0.168 0.239 -8.725 -22.87 -37.221
2.186678333004238 -0.884 0.174 0.239 -9.237 -23.198 -31.534
2.193380041004275 -0.913 0.179 0.279 -7.809 -25.298 -24.29
2.2054893330059713 -0.924 0.216 0.33 -6.26 -31.206 -14.206
2.2126985829963814 -0.973 0.225 0.333 -9.237 -37.366 -6.076
2.224644582995097 -1.012 0.198 0.325 -13.977 -44.489 -1.939
2.2365050410007825 -1.017 0.182 0.303 -19.847 -49.42 -1.947
2.243312332997448 -1.023 0.151 0.296 -24.137 -53.55 -5.137
2.255341124997358 -1.025 0.147 0.3 -27.26 -58.359 -8.214
2.267133000001195 -1.007 0.094 0.276 -30.076 -58.611 -12.282
2.2739490829990245 -0.995 0.065 0.265 -34.573 -55.183 -20.046
2.286140583004453 -0.987 0.056 0.298 -37.58 -52.748 -27.221
2.292809541002498 -0.959 0.054 0.291 -38.084 -49.115 -33.641
2.304878082999494 -0.997 0.067 0.317 -36.496 -51.115 -36.344
2.3168242079991614 -1.057 0.091 0.356 -30.809 -59.908 -32.84
2.3233377500000643 -1.119 0.083 0.41 -23.725 -77.504 -26.344
2.3351651660050265 -1.18 0.078 0.454 -13.489 -104.389 -17.115
2.347143249993678 -1.198 0.062 0.471 -2.863 -137.26 -7.397
2.3543758330051787 -1.18 0.066 0.462 8.985 -167.595 1.718
2.366460958000971 -1.162 0.071 0.444 19.015 -189.947 8.565
2.373172124993289 -1.14 0.072 0.465 29.374 -203.802 12.878
2.385362750006607 -1.113 0.083 0.481 39.847 -212.282 13.687
2.3970895410020603 -1.082 0.109 0.492 49.519 -216.084 13.244
2.4041489999945043 -1.026 0.116 0.479 56.221 -213.244 10.565
2.41634008300025 -0.99 0.128 0.505 59.748 -210.855 5.176
2.4231190830032574 -0.975 0.187 0.547 58.13 -210.481 -0.206
2.4350122080068104 -0.941 0.212 0.64 56.282 -214.031 -2.038
2.447191583007225 -0.918 0.284 0.678 49.42 -227.076 -0.878
2.4540249580022646 -0.89 0.325 0.704 40.763 -243.969 3.817
2.465989582997281 -0.838 0.329 0.755 35.84 -250.137 10.519
2.472876083003939 -0.78 0.342 0.766 32.634 -250.137 17.748
2.4850320830009878 -0.701 0.379 0.729 25.351 -250.137 24.16
2.496877665995271 -0.617 0.37 0.705 17.038 -250.137 30.153
2.5038970409950707 -0.503 0.345 0.674 9.084 -250.137 31.74
2.515918250006507 -0.401 0.304 0.666 3.55 -250.137 29.26
2.522974791005254 -0.289 0.299 0.614 -1.748 -250.137 24.489
