Time AX AY AZ GX GY GZ
0.012846375000663102 0.045 0.163 1.216 -13.412 40.748 -39.885
0.019791416998486966 0.046 0.146 1.215 -15.977 43.237 -42.679
0.03156579200003762 0.028 0.139 1.217 -18.534 44.863 -46.634
0.04395220900187269 0.051 0.121 1.206 -19.015 47.26 -50.008
0.050667999996221624 0.067 0.113 1.173 -19.328 52.527 -52.405
0.06311258400091901 0.067 0.106 1.165 -17.198 56.519 -52.137
0.06997112500539515 0.015 0.106 1.144 -13.435 55.649 -48.802
0.08200462500099093 -0.015 0.093 1.154 -6.901 51.145 -43.847
0.09407204200397246 -0.055 0.083 1.154 1.824 43.214 -38.885
0.10129441699245945 -0.062 0.091 1.142 9.076 36.771 -35.168
0.11319266700593289 -0.038 0.083 1.13 12.855 34.779 -35.802
0.12034350000612903 -0.006 0.086 1.114 14.42 38.542 -40.008
0.13258233400119934 0.015 0.108 1.106 12.733 45.664 -45.588
0.14459262500167824 0.024 0.123 1.111 7.992 50.374 -50.863
0.15177308399870526 0.017 0.133 1.128 1.939 55.168 -53.641
0.16388824999739882 0.011 0.132 1.161 -1.481 55.565 -53.55
0.17102341700228862 -0.025 0.151 1.162 -1.145 51.122 -50.015
0.18301558399980422 -0.038 0.144 1.17 0.557 46.122 -45.313
0.1900569169956725 -0.034 0.151 1.145 1.649 41.786 -42.718
0.20221883400517981 -0.014 0.152 1.123 2.595 41.443 -43.137
0.21437337499810383 0.009 0.155 1.115 4.023 43.389 -46.084
0.2214929170004325 0.039 0.17 1.108 4.924 49.45 -48.588
0.23384537499805447 0.053 0.171 1.109 4.908 56.992 -50.504
0.24103950000426266 0.017 0.192 1.127 4.565 61.527 -50.076
0.2533244590013055 -0.037 0.191 1.18 3.504 61.336 -48.29
0.26002649999281857 -0.073 0.184 1.197 2.351 56.817 -46.489
0.27208108399645425 -0.085 0.168 1.223 1.763 51.084 -44.366
0.2844249170011608 -0.063 0.16 1.192 2.481 47.008 -42.519
0.29148279200308025 -0.034 0.158 1.13 1.405 49.458 -42.817
0.3036128749954514 -0.033 0.153 1.115 0.588 55.595 -43.809
0.3110195420013042 -0.062 0.153 1.114 0.71 59.916 -44.557
0.32295158399210777 -0.111 0.158 1.117 1.84 62.817 -44.779
0.32996691699372604 -0.149 0.159 1.154 3.458 62.588 -45.45
0.3421163750026608 -0.155 0.167 1.17 5.16 59.046 -46.084
0.35412158399412874 -0.146 0.175 1.153 4.908 56.672 -46.137
0.36121299999649636 -0.121 0.179 1.137 4.496 56.649 -46.321
0.37335212499601766 -0.128 0.188 1.132 4.374 56.069 -45.84
0.3807031670003198 -0.142 0.199 1.129 3.206 55.191 -45.069
0.392741167001077 -0.153 0.189 1.129 1.855 54.344 -44.817
0.39848341699689627 -0.154 0.195 1.142 0.573 56.046 -46.359
0.41198879199509975 -0.178 0.199 1.151 -0.366 56.962 -47.947
0.4239902919944143 -0.194 0.194 1.151 -0.756 57.206 -49.405
0.43079462500463706 -0.2 0.203 1.166 -0.466 57.672 -50.573
0.44294762499339413 -0.207 0.207 1.159 -0.45 56.718 -51.45
0.45002508399193175 -0.21 0.205 1.159 -0.802 54.504 -51.267
0.462046583998017 -0.2 0.191 1.153 -0.878 52.122 -50.084
0.4738760420004837 -0.2 0.193 1.151 -1.382 49.824 -49.29
0.4810392090003006 -0.186 0.196 1.14 -1.641 47.84 -48.023
0.4930416669958504 -0.161 0.184 1.115 -1.847 48.855 -47.412
0.5000937089935178 -0.162 0.191 1.102 -2.611 53.092 -48.954
0.5120323339942843 -0.173 0.194 1.097 -3.588 57.13 -49.267
0.524079625000013 -0.209 0.18 1.107 -3.145 58.427 -49.58
0.530821249994915 -0.223 0.174 1.097 -1.947 57.443 -48.74
0.5431902499985881 -0.24 0.16 1.104 -1.031 55.756 -48.069
0.5503692089987453 -0.261 0.156 1.117 0.069 53.176 -47.863
0.5625062089966377 -0.264 0.168 1.122 1.305 50.107 -47.817
0.5746987919992534 -0.241 0.166 1.09 1.71 49.221 -48.244
0.5811995840049349 -0.239 0.166 1.086 2.031 51.702 -48.832
0.5934983339975588 -0.253 0.172 1.085 2.733 52.153 -48.351
0.6008048340008827 -0.275 0.162 1.102 2.924 49.87 -48.382
0.6129996670060791 -0.27 0.162 1.113 3.023 46.626 -48.298
0.6203371250012424 -0.237 0.164 1.088 2.076 46.183 -48.374
0.6322005840047495 -0.219 0.167 1.095 0.916 48.947 -48.695
0.6441860000049928 -0.227 0.171 1.062 -0.267 52.29 -48.511
0.6511787089984864 -0.264 0.173 1.088 -0.756 54.176 -47.718
0.6632353339955444 -0.312 0.18 1.094 -0.29 52.542 -46.626
0.6703304590046173 -0.335 0.167 1.111 0.267 49.985 -45.885
0.6824063749954803 -0.332 0.174 1.114 1.588 46.786 -45.496
0.6946761669969419 -0.31 0.175 1.096 2.053 45.992 -46.008
0.7018329589918721 -0.288 0.182 1.076 0.473 49.573 -47.542
0.7136207089934032 -0.266 0.174 1.065 -1.763 56.305 -50.565
0.7208442499977536 -0.29 0.177 1.086 -3.084 59.901 -52.313
0.7328013749938691 -0.314 0.175 1.098 -2.969 58.29 -50.336
0.7399719170061871 -0.314 0.178 1.092 -2.588 55.168 -47.046
0.7517823340022005 -0.334 0.165 1.088 -2.656 52.038 -43.298
0.7638245419948362 -0.353 0.156 1.09 -1.588 49.45 -40.198
0.7712632920010947 -0.379 0.151 1.07 0.519 47.573 -39.756
0.7832898750057211 -0.374 0.146 1.053 1.748 48.13 -41.405
0.7901465000031749 -0.359 0.138 1.04 1.588 52.092 -45.611
0.8024043750046985 -0.353 0.15 1.048 1.458 56.87 -49.649
0.8145148339972366 -0.346 0.159 1.047 0.908 59.13 -52.023
0.8216406669962453 -0.34 0.166 1.037 0.206 62.107 -52.099
0.833792709003319 -0.355 0.176 1.06 -0.336 62.336 -51.122
0.8406301670038374 -0.385 0.183 1.075 -1.023 57.947 -48.29
0.8527599590015598 -0.364 0.169 1.059 -1.763 56.16 -46.397
0.8645556669944199 -0.356 0.174 1.06 -2.008 56.511 -46.634
0.8717936250031926 -0.357 0.201 1.028 -2.992 58.718 -46.092
0.8836652089958079 -0.371 0.201 1.032 -2.763 59.947 -44.641
0.8908702920016367 -0.387 0.192 1.037 -1.802 62.191 -42.634
0.9026550419948762 -0.436 0.188 1.043 -0.504 61.588 -41.908
0.9096923750039423 -0.453 0.2 1.048 0.374 59.908 -41.702
0.9219765419984469 -0.446 0.189 1.034 0.901 59.42 -41.618
0.9342339589929907 -0.423 0.179 1.01 0.122 62.809 -43.26
0.9411847089941148 -0.437 0.168 1.013 -1.588 66.824 -44.557
0.9532713340013288 -0.47 0.166 1.032 -1.962 66.634 -44.878
0.9601137499994365 -0.506 0.178 1.041 -1.901 62.527 -44.389
0.9725095839967253 -0.534 0.188 1.052 -2.298 57.191 -43.191
0.9843689999979688 -0.528 0.198 1.025 -2.618 53.168 -42.84
0.9912359169975389 -0.506 0.179 1.008 -2.672 53.588 -44.878
1.003476750003756 -0.487 0.192 1.003 -3.069 56.489 -47.702
1.0101654169993708 -0.479 0.197 0.991 -4.153 59.718 -49.542
1.0225732090038946 -0.472 0.195 1.004 -4.748 63.069 -50.115
1.0344150419987272 -0.472 0.192 0.994 -5.42 64.595 -50.183
1.0413508339988766 -0.482 0.188 0.983 -6.305 65.473 -49.718
1.0533927920041606 -0.526 0.185 0.994 -5.771 63.458 -47.137
1.0607073749997653 -0.552 0.179 0.99 -4.931 58.008 -43.672
1.0724797919974662 -0.568 0.159 0.991 -3.389 53.779 -41.916
1.084585499993409 -0.577 0.132 0.966 -1.267 50.427 -41.74
1.0915479169925675 -0.552 0.145 0.928 -1.031 51.786 -44.145
1.1036825839983067 -0.512 0.139 0.915 -2.641 57.214 -48.359
1.1106212089944165 -0.504 0.146 0.912 -2.0 63.145 -51.855
1.122834708992741 -0.507 0.16 0.927 -1.023 67.344 -53.534
1.1284564999950817 -0.534 0.184 0.942 -1.427 66.282 -52.069
1.1418379169917898 -0.543 0.179 0.95 -2.519 62.145 -48.611
1.1539898339979118 -0.537 0.172 0.96 -4.038 57.84 -46.672
1.1608513340033824 -0.537 0.179 0.937 -5.137 55.366 -44.382
1.1729991250031162 -0.558 0.182 0.917 -6.015 55.504 -42.122
1.1800692919932771 -0.562 0.171 0.939 -7.084 57.527 -41.771
1.1920676250010729 -0.564 0.158 0.898 -6.87 61.687 -42.817
1.203886874995078 -0.59 0.161 0.892 -6.443 64.389 -44.786
1.2112436250026803 -0.622 0.16 0.896 -5.221 63.42 -45.282
1.2229603339947062 -0.617 0.162 0.89 -3.084 59.878 -43.947
1.230117250001058 -0.604 0.168 0.877 -1.191 58.16 -41.809
1.242172041995218 -0.593 0.165 0.863 -0.206 58.786 -40.496
1.254151749992161 -0.619 0.162 0.861 0.076 58.794 -40.015
1.261264917004155 -0.658 0.161 0.863 -0.137 58.42 -39.366
1.2733808750053868 -0.681 0.153 0.864 0.527 57.924 -40.237
1.2800863339944044 -0.691 0.141 0.864 2.176 57.221 -41.962
1.2925892920029582 -0.678 0.139 0.855 2.771 59.267 -44.542
1.304622458992526 -0.685 0.159 0.858 2.481 60.359 -46.656
1.3115708340046695 -0.694 0.153 0.868 2.069 61.061 -48.038
1.3238751250028145 -0.697 0.158 0.882 1.374 59.031 -48.618
1.330861708993325 -0.7 0.136 0.859 2.649 56.756 -48.092
1.3433819999918342 -0.699 0.135 0.843 4.221 54.397 -47.992
1.3501877499948023 -0.7 0.144 0.836 5.603 52.038 -47.45
1.3622542090015486 -0.67 0.142 0.81 6.634 53.015 -47.87
1.3743972499942174 -0.677 0.151 0.806 7.504 55.58 -49.214
1.3811881250003353 -0.683 0.168 0.796 7.198 59.069 -50.076
1.3935228339978494 -0.686 0.159 0.797 7.786 62.023 -51.176
1.4008145419938955 -0.698 0.171 0.798 8.053 64.664 -52.0
1.4129733339941595 -0.729 0.181 0.812 7.603 64.618 -51.786
1.4201831669925014 -0.738 0.181 0.836 7.557 61.321 -49.687
1.4319964589958545 -0.737 0.213 0.84 6.763 57.634 -47.695
1.4441967500024475 -0.732 0.208 0.818 5.802 53.389 -45.13
1.4514313340041554 -0.709 0.213 0.809 3.733 53.183 -43.924
1.463430874995538 -0.701 0.208 0.805 0.977 57.198 -44.817
1.4703065840003546 -0.715 0.192 0.799 -1.374 61.962 -46.313
1.4824870839947835 -0.732 0.178 0.802 -3.244 64.389 -48.443
1.4946625839947956 -0.748 0.165 0.773 -4.985 66.985 -49.924
1.5015894169919193 -0.752 0.144 0.762 -5.794 68.298 -51.504
1.5139247920014895 -0.754 0.146 0.751 -5.099 67.649 -51.542
1.520577458999469 -0.746 0.145 0.735 -4.366 67.863 -50.282
1.5327872920024674 -0.76 0.133 0.725 -3.443 68.756 -48.985
1.5446170840004925 -0.782 0.142 0.724 -1.931 66.779 -47.336
1.551692124994588 -0.764 0.127 0.709 0.603 66.389 -46.702
1.5638493750011548 -0.746 0.121 0.67 1.588 70.305 -48.298
1.5709745420026593 -0.744 0.14 0.683 1.328 74.237 -50.321
1.5832938749954337 -0.75 0.156 0.679 1.168 76.817 -51.191
1.5900582500034943 -0.735 0.18 0.675 -0.206 78.939 -51.198
1.6022904589917744 -0.751 0.181 0.672 -3.542 84.656 -52.756
1.61423691699747 -0.746 0.169 0.683 -7.603 91.87 -56.466
1.621023250001599 -0.747 0.18 0.667 -14.412 98.183 -59.733
1.632984124997165 -0.763 0.166 0.673 -20.756 102.855 -60.718
1.6398455839953385 -0.813 0.161 0.691 -23.252 98.527 -58.031
1.6520887090009637 -0.832 0.145 0.667 -21.992 91.366 -52.321
1.6638969170016935 -0.822 0.155 0.624 -20.053 88.092 -47.458
1.6708288749941858 -0.813 0.155 0.562 -19.733 91.252 -45.763
1.6827716669940855 -0.807 0.152 0.534 -21.511 98.58 -46.618
1.6946024999924703 -0.789 0.145 0.499 -24.344 110.092 -50.573
1.7015392500034068 -0.833 0.128 0.545 -23.771 120.618 -54.435
1.7134401670045918 -0.927 0.138 0.581 -21.351 119.328 -55.206
1.7203343750006752 -0.992 0.157 0.606 -19.992 108.046 -51.908
1.7320718749979278 -0.986 0.131 0.618 -16.786 95.71 -48.29
1.7442128749971744 -0.938 0.137 0.568 -15.168 89.252 -46.183
1.7511284170032013 -0.887 0.122 0.532 -17.405 89.313 -45.42
1.763227208997705 -0.845 0.101 0.487 -19.733 94.252 -46.053
1.7698125839960994 -0.853 0.093 0.449 -21.756 101.618 -47.466
1.7817248749925056 -0.875 0.111 0.427 -24.244 107.962 -48.336
1.7936893339938251 -0.899 0.118 0.412 -25.618 114.168 -48.221
1.800572749998537 -0.926 0.11 0.407 -24.855 118.481 -47.908
1.8127161669981433 -0.954 0.107 0.395 -25.382 123.107 -49.405
1.8244645840022713 -0.994 0.112 0.391 -27.359 128.122 -53.87
1.831455499996082 -1.033 0.096 0.422 -30.786 126.191 -57.26
1.843217834000825 -1.062 0.099 0.46 -30.679 114.252 -56.641
1.8500645839958452 -1.031 0.111 0.407 -30.908 100.229 -53.183
1.8623302500054706 -1.006 0.095 0.37 -32.359 91.626 -48.641
1.8739877920015715 -0.983 0.093 0.349 -33.901 83.931 -43.229
1.8807694999995874 -0.979 0.093 0.323 -34.29 77.061 -38.573
1.8929002090007998 -0.934 0.073 0.246 -34.122 76.672 -36.901
1.8986187090049498 -0.862 0.101 0.131 -38.351 87.015 -40.13
1.9115672089974396 -0.811 0.069 0.101 -39.191 105.947 -45.26
1.9234528340020915 -0.845 0.039 0.122 -34.145 121.458 -49.664
1.9303180419956334 -0.931 0.017 0.184 -23.672 124.229 -47.229
1.9421674170007464 -1.01 0.018 0.249 -9.26 113.153 -39.015
1.9543665840028552 -1.046 0.039 0.223 4.153 94.611 -28.076
1.961498250006116 -1.051 0.041 0.184 12.496 81.611 -21.084
1.9733709169959184 -1.034 0.042 0.141 15.611 78.855 -20.939
1.980616041997564 -1.019 0.058 0.158 15.405 80.26 -25.84
1.992512374999933 -1.018 0.076 0.163 12.435 83.565 -33.061
2.0046108749957057 -1.037 0.125 0.157 5.344 90.824 -40.473
2.0116807089943904 -1.116 0.153 0.225 -1.473 87.962 -42.519
2.0237834169965936 -1.196 0.15 0.26 -3.977 72.305 -38.252
2.0308421249937965 -1.22 0.132 0.26 -2.786 51.977 -31.504
2.042867916999967 -1.204 0.113 0.225 0.672 37.084 -26.275
2.049676541995723 -1.16 0.098 0.154 1.115 30.588 -27.244
2.0621515840030042 -1.056 0.081 0.079 -1.305 38.496 -35.901
2.0741232089931145 -1.028 0.062 0.092 -2.466 49.718 -48.076
2.080888166994555 -1.086 0.084 0.143 -2.053 49.504 -54.893
2.093270166995353 -1.118 0.107 0.179 -0.656 36.481 -56.237
2.1001187920046505 -1.099 0.103 0.182 0.031 23.244 -56.29
2.112290374992881 -1.035 0.097 0.174 -0.763 14.611 -56.847
2.1243822919932427 -0.959 0.098 0.134 -1.985 10.26 -57.634
2.130978542001685 -0.902 0.113 0.128 -2.527 8.656 -58.115
2.143325166995055 -0.882 0.116 0.102 -2.107 10.008 -56.794
2.1503435420017922 -0.858 0.114 0.067 -3.756 13.809 -56.214
2.1624795840034494 -0.857 0.092 0.08 -3.275 16.649 -55.824
2.1747029169928282 -0.879 0.103 0.118 -1.557 13.84 -55.611
2.1812382499920204 -0.893 0.111 0.12 -1.16 8.313 -54.046
2.1935439170047175 -0.856 0.12 0.115 -0.588 5.198 -51.977
2.2009111670049606 -0.844 0.143 0.112 -0.16 3.282 -48.55
2.21309345899499 -0.874 0.122 0.13 0.916 0.565 -44.13
2.2197875839920016 -0.911 0.104 0.128 0.809 -2.374 -40.748
2.2322966670035385 -0.933 0.096 0.143 -0.458 -4.748 -39.153
2.24416183399444 -0.921 0.09 0.137 -2.282 -5.244 -40.16
2.251218292003614 -0.895 0.107 0.093 -5.618 -4.13 -42.603
2.263476709005772 -0.849 0.106 0.05 -9.046 3.115 -45.122
2.270303041994339 -0.853 0.084 0.077 -7.229 10.58 -46.656
2.28247345899581 -0.927 0.096 0.133 -3.527 9.153 -44.42
2.2946212090027984 -0.962 0.087 0.138 -0.649 3.336 -41.55
2.301593416996184 -0.933 0.073 0.124 -0.13 1.733 -41.809
2.3137549170060083 -0.901 0.072 0.125 0.542 2.046 -42.626
2.320831000004546 -0.895 0.083 0.129 1.473 1.656 -43.504
2.333168917000876 -0.933 0.096 0.155 2.679 -1.55 -41.649
2.340123208996374 -0.953 0.104 0.169 3.641 -8.13 -38.458
2.352023375002318 -0.964 0.119 0.182 3.794 -14.115 -34.832
2.3641957090003416 -0.987 0.116 0.211 4.237 -20.176 -31.198
2.3710040419973666 -1.009 0.133 0.239 3.863 -24.954 -29.901
2.383431334004854 -0.979 0.122 0.184 0.435 -23.382 -31.885
2.390115166999749 -0.919 0.131 0.154 -6.458 -14.206 -39.13
2.401922499993816 -0.903 0.116 0.182 -10.985 -5.031 -45.023
2.41421633400023 -0.944 0.12 0.211 -12.16 -4.649 -46.412
2.4212043339939555 -0.978 0.121 0.244 -10.412 -9.145 -43.855
2.4331354169989936 -1.001 0.124 0.259 -6.87 -17.885 -37.901
2.4396856669918634 -1.035 0.125 0.275 -3.397 -30.84 -32.863
2.4519959169992944 -1.025 0.11 0.296 2.023 -42.351 -29.573
2.4640819170017494 -1.021 0.103 0.279 4.588 -47.954 -32.244
2.4710744170006365 -0.972 0.129 0.269 3.931 -47.237 -37.931
2.4832514589943457 -0.95 0.148 0.318 2.137 -47.802 -45.198
2.489862959002494 -0.988 0.185 0.374 -1.13 -55.733 -49.573
2.502264708993607 -0.964 0.225 0.388 -3.313 -66.122 -46.977
2.514098500003456 -0.891 0.217 0.314 -8.328 -70.45 -42.321
2.5208794999925885 -0.829 0.182 0.286 -13.412 -61.779 -37.168
2.5330107920017326 -0.811 0.146 0.295 -17.298 -55.878 -33.046
