Time AX AY AZ GX GY GZ
0.014234957998269238 0.148 0.065 1.164 -8.435 19.282 -41.802
0.026185250011621974 0.142 0.064 1.162 -9.672 22.053 -42.55
0.03318175001186319 0.123 0.061 1.163 -10.282 22.244 -42.542
0.04545245799818076 0.134 0.049 1.147 -9.771 23.817 -42.954
0.0522144160058815 0.132 0.056 1.133 -8.832 26.702 -44.595
0.06451491601183079 0.133 0.052 1.145 -9.046 28.969 -45.947
0.07662812501075678 0.152 0.05 1.135 -9.023 31.168 -47.313
0.08384287499939092 0.148 0.053 1.144 -8.244 31.824 -45.916
0.095959958009189 0.133 0.059 1.157 -7.427 31.115 -43.695
0.10310087499965448 0.124 0.057 1.17 -6.779 29.382 -41.511
0.11522637501184363 0.097 0.051 1.176 -5.634 27.015 -40.695
0.12216425000224262 0.09 0.059 1.165 -4.603 23.786 -40.786
0.13435495800513308 0.104 0.05 1.143 -3.611 24.527 -41.763
0.14639670800534077 0.112 0.052 1.153 -2.908 27.87 -43.863
0.15369775000726804 0.102 0.06 1.154 -1.611 29.962 -44.794
0.16575125000963453 0.097 0.073 1.166 -1.069 31.374 -45.29
0.1728617910121102 0.095 0.089 1.193 -0.603 33.084 -46.496
0.1850548750080634 0.082 0.108 1.2 -0.015 32.893 -47.649
0.1921338329993887 0.094 0.131 1.217 0.443 31.969 -47.481
0.20426604100794066 0.109 0.154 1.239 0.008 30.863 -46.664
0.21648004101007245 0.101 0.158 1.256 -1.0 27.863 -43.87
0.22356504100025631 0.129 0.156 1.258 -2.542 23.702 -40.496
0.2356993749999674 0.127 0.138 1.252 -4.519 19.046 -37.198
0.24260208300256636 0.133 0.115 1.231 -5.855 15.656 -33.45
0.25470945800771005 0.122 0.1 1.203 -7.702 14.977 -31.71
0.26705920801032335 0.116 0.075 1.175 -8.389 16.58 -32.87
0.2741188750078436 0.106 0.054 1.168 -7.885 18.893 -35.55
0.2861961250018794 0.095 0.043 1.15 -7.641 21.595 -39.099
0.29334850001032464 0.116 0.046 1.127 -6.985 26.092 -43.191
0.30549670800974127 0.107 0.047 1.14 -5.901 30.076 -46.511
0.3124833750043763 0.09 0.071 1.164 -4.74 29.71 -46.992
0.32453041600820143 0.077 0.08 1.197 -2.962 26.313 -45.237
0.33699287500348873 0.083 0.092 1.223 0.298 18.58 -42.305
0.3440932080120547 0.083 0.079 1.219 3.626 10.145 -37.641
0.35614445801184047 0.088 0.066 1.188 5.588 3.359 -33.557
0.3633035410020966 0.078 0.062 1.178 6.534 -2.076 -30.13
0.37575316600850783 0.085 0.073 1.166 6.977 -4.481 -30.305
0.38286508301098365 0.116 0.067 1.139 4.137 2.366 -35.969
0.39498012499825563 0.149 0.081 1.114 -2.206 16.038 -44.481
0.4021628330083331 0.159 0.071 1.14 -8.443 29.557 -52.496
0.4140657079988159 0.137 0.068 1.154 -13.588 37.527 -56.191
0.42618116601079237 0.134 0.068 1.169 -16.244 37.221 -53.725
0.43310604100406636 0.109 0.057 1.162 -14.305 33.031 -49.611
0.4452495830046246 0.06 0.052 1.173 -9.603 25.595 -45.466
0.4522849580098409 0.038 0.051 1.169 -4.344 16.756 -42.71
0.46465995800099336 0.06 0.07 1.157 0.466 11.092 -42.969
0.4771342080057366 0.11 0.105 1.147 2.924 11.038 -44.412
0.4839536660001613 0.153 0.123 1.14 2.221 14.924 -45.504
0.4961250000051223 0.174 0.136 1.149 -0.244 20.237 -45.473
0.5028900410106871 0.147 0.139 1.186 -2.84 23.618 -45.382
0.515054791001603 0.12 0.146 1.208 -6.015 23.641 -44.282
0.5220335409976542 0.117 0.14 1.213 -8.359 22.779 -43.534
0.5342609580111457 0.115 0.122 1.199 -9.489 20.656 -41.992
0.5465906660101609 0.117 0.109 1.167 -9.458 18.366 -39.672
0.5535641250025947 0.126 0.084 1.157 -9.183 17.412 -37.878
0.5657887910056161 0.122 0.059 1.135 -8.473 18.977 -37.58
0.5724843330099247 0.113 0.046 1.111 -8.397 22.573 -39.107
0.5847975409997161 0.099 0.034 1.119 -9.267 26.137 -40.847
0.5919058330036933 0.069 0.022 1.107 -9.191 29.71 -43.145
0.604111708002165 0.062 0.016 1.115 -7.229 31.122 -45.321
0.6164104580093408 0.081 0.026 1.122 -3.71 32.084 -47.443
0.6234552500100108 0.096 0.065 1.134 -1.198 34.939 -49.26
0.635578750006971 0.111 0.115 1.176 0.137 35.893 -48.931
0.6426727500074776 0.097 0.144 1.228 -1.0 29.542 -45.969
0.6549351249996107 0.117 0.151 1.246 -1.351 25.237 -40.389
0.6608694160095183 0.095 0.146 1.26 -0.779 19.763 -35.038
0.6740452500089305 0.073 0.114 1.267 -0.252 11.42 -30.733
0.6864334160054568 0.091 0.099 1.21 -1.168 8.351 -29.832
0.6932536250096746 0.101 0.085 1.167 -4.29 11.282 -32.511
0.7054357080050977 0.104 0.066 1.128 -7.374 17.519 -37.191
0.7126288750005187 0.116 0.069 1.085 -8.458 26.573 -43.115
0.7247026660043048 0.102 0.08 1.088 -9.099 34.878 -47.427
0.7369099159986945 0.08 0.078 1.125 -7.733 37.198 -48.908
0.7441599580051843 0.059 0.08 1.156 -2.901 35.023 -47.229
0.7560960410046391 0.056 0.084 1.177 2.42 28.153 -43.244
0.763442750001559 0.048 0.104 1.214 6.656 19.511 -38.832
0.7755485000088811 0.062 0.108 1.228 9.763 10.977 -34.702
0.7825728330062702 0.076 0.111 1.217 10.725 4.687 -31.679
0.7951596659986535 0.093 0.119 1.184 8.397 3.779 -31.214
0.8021561250061495 0.092 0.109 1.161 5.015 6.435 -33.031
0.814549665999948 0.117 0.095 1.129 0.588 13.336 -36.931
0.8266995410085656 0.114 0.09 1.103 -4.084 23.74 -41.588
0.8336212910071481 0.091 0.071 1.123 -5.542 32.29 -45.061
0.8458021660044324 0.055 0.067 1.152 -4.336 33.13 -46.534
0.8530086660030065 0.05 0.066 1.167 -2.321 31.397 -46.802
0.8650927080016118 0.047 0.072 1.171 1.183 26.16 -46.092
0.8721668750076788 0.039 0.082 1.176 5.84 18.519 -43.42
0.8844934580120025 0.055 0.093 1.192 8.427 10.344 -39.656
0.8966073750052601 0.104 0.111 1.175 7.45 8.176 -38.023
0.9038095830037491 0.119 0.102 1.179 3.45 12.282 -39.496
0.9160146659996826 0.105 0.096 1.178 -0.634 17.649 -42.42
0.9231668749998789 0.112 0.095 1.181 -4.71 22.13 -45.198
0.9352037909993669 0.102 0.084 1.173 -6.718 24.84 -45.626
0.9424028750072466 0.089 0.091 1.164 -6.809 24.481 -44.519
0.9545167500036769 0.074 0.103 1.162 -4.351 22.328 -42.679
0.9665953330113553 0.082 0.093 1.159 -1.573 21.916 -41.626
0.9737931660056347 0.078 0.074 1.147 0.901 21.366 -42.168
0.985950791000505 0.086 0.067 1.177 3.237 20.504 -42.725
0.9932371660106583 0.106 0.052 1.164 4.656 20.046 -42.725
1.0052354580111569 0.101 0.07 1.159 4.206 20.252 -43.244
1.012385958005325 0.093 0.096 1.17 2.443 21.237 -45.13
1.024845332998666 0.097 0.116 1.2 1.336 21.13 -46.771
1.037083540999447 0.103 0.145 1.201 -1.092 19.336 -45.969
1.043835250005941 0.121 0.155 1.204 -3.534 16.977 -43.985
1.0560510000068462 0.131 0.142 1.196 -5.076 16.237 -41.603
1.0631601659988519 0.113 0.133 1.171 -6.16 16.832 -40.466
1.075379875008366 0.104 0.112 1.165 -5.015 17.45 -40.13
1.082102708009188 0.094 0.096 1.154 -3.504 17.809 -39.84
1.0945110410102643 0.093 0.079 1.15 -1.321 17.519 -39.344
1.10660754100536 0.095 0.074 1.136 1.252 17.084 -39.076
1.1138531250035157 0.101 0.079 1.126 3.969 17.359 -38.191
1.1259268750000047 0.104 0.087 1.123 5.038 18.649 -38.092
1.1332294580060989 0.093 0.115 1.136 4.687 19.458 -37.74
1.145524250008748 0.094 0.135 1.169 2.244 19.366 -37.374
1.1526379580027424 0.074 0.131 1.218 0.947 17.885 -38.069
1.1647296660084976 0.074 0.137 1.206 -0.076 16.084 -38.107
1.1769542910042219 0.096 0.132 1.197 -1.534 16.031 -38.229
1.1838174160075141 0.1 0.151 1.176 -2.794 16.412 -37.809
1.1959118329978082 0.119 0.137 1.176 -2.947 16.969 -37.099
1.2029338749998715 0.137 0.133 1.159 -3.863 19.244 -36.71
1.2152133750059875 0.114 0.13 1.164 -5.847 20.412 -35.008
1.2223874160117703 0.102 0.117 1.174 -6.519 19.122 -34.015
1.2344809580099536 0.086 0.111 1.167 -6.611 17.595 -33.962
1.2465941660047974 0.092 0.1 1.155 -6.771 16.16 -34.397
1.2534707080048975 0.097 0.092 1.138 -6.771 15.656 -33.832
1.265725666002254 0.09 0.075 1.133 -7.656 15.809 -33.252
1.2727687080041505 0.079 0.053 1.131 -7.695 16.504 -33.618
1.284965208003996 0.054 0.045 1.136 -8.191 15.267 -34.962
1.292092166011571 0.06 0.049 1.127 -9.863 18.229 -39.267
1.3041278750024503 0.052 0.059 1.125 -10.695 22.908 -44.878
1.3161729580024257 0.047 0.057 1.128 -10.115 25.26 -49.321
1.3234520000114571 0.048 0.07 1.132 -8.885 23.687 -51.168
1.335462875009398 0.071 0.081 1.152 -6.733 20.153 -50.13
1.3423549580038525 0.094 0.09 1.157 -3.885 16.786 -47.916
1.3545020410092548 0.091 0.094 1.172 -1.13 11.725 -44.634
1.3669723330094712 0.101 0.083 1.166 1.168 7.275 -41.26
1.3741135830059648 0.109 0.078 1.16 2.733 4.695 -39.206
1.3863561660109553 0.122 0.086 1.151 2.611 4.573 -38.802
1.3935816250013886 0.142 0.092 1.13 0.313 10.0 -41.58
1.4056775000062771 0.158 0.116 1.124 -2.756 17.336 -44.649
1.412896499998169 0.158 0.136 1.134 -6.992 24.802 -46.763
1.425031625010888 0.137 0.13 1.166 -9.687 27.718 -46.198
1.436979208010598 0.089 0.117 1.192 -10.015 24.504 -44.183
1.4440948330011452 0.073 0.1 1.189 -8.008 18.244 -41.084
1.456143333009095 0.078 0.077 1.162 -5.641 12.702 -39.527
1.4633475830050884 0.092 0.049 1.137 -2.519 10.863 -39.519
1.4755500410101376 0.13 0.054 1.127 0.145 10.656 -40.748
1.4825808330060681 0.142 0.071 1.097 1.344 11.885 -41.176
1.4947415000060573 0.178 0.074 1.068 2.229 18.046 -42.275
1.500679916003719 0.182 0.067 1.069 2.427 26.023 -42.992
1.5142616660014028 0.143 0.073 1.107 3.198 30.412 -43.786
1.5265590409981087 0.104 0.091 1.133 4.389 30.374 -43.076
1.5336355830077082 0.1 0.107 1.186 4.679 28.519 -42.45
1.5457798749994254 0.089 0.11 1.208 3.87 25.168 -41.26
1.5529671660042368 0.068 0.095 1.224 4.069 21.412 -41.031
1.5654068750009174 0.073 0.095 1.209 4.275 16.947 -40.053
1.5725515829981305 0.098 0.077 1.187 4.366 15.687 -40.855
1.584716750003281 0.108 0.071 1.147 3.489 17.863 -41.901
1.5966710409993539 0.115 0.05 1.146 2.954 20.504 -43.382
1.6038268749980489 0.107 0.041 1.123 3.542 22.252 -44.74
1.6161737500078743 0.108 0.061 1.11 2.916 24.687 -46.183
1.6233282080065692 0.099 0.072 1.135 2.718 26.267 -47.748
1.6354907080094563 0.085 0.093 1.164 3.237 26.641 -48.298
1.6425936250016093 0.074 0.113 1.198 4.122 22.824 -47.305
1.6547194160084473 0.092 0.108 1.192 5.435 19.687 -45.031
1.6606627910077805 0.111 0.11 1.164 4.931 17.672 -43.534
1.6743886250042124 0.101 0.089 1.159 4.42 16.771 -42.382
1.686445541010471 0.096 0.094 1.161 3.153 14.824 -41.084
1.6936704160034424 0.091 0.077 1.182 1.672 12.885 -40.0
1.7083572080009617 0.09 0.065 1.153 0.809 12.893 -40.237
1.7128457910002908 0.097 0.056 1.135 0.313 15.038 -41.504
1.7250047499983339 0.101 0.065 1.129 -0.198 18.87 -43.473
1.7319186250097118 0.101 0.096 1.129 -0.55 24.45 -47.412
1.7441418750095181 0.102 0.11 1.163 0.809 27.832 -50.611
1.7566440410009818 0.11 0.13 1.165 2.061 28.496 -51.137
1.76381320800283 0.12 0.137 1.207 2.908 27.282 -49.55
1.775951540999813 0.11 0.135 1.21 3.863 23.618 -46.061
1.783013000007486 0.098 0.128 1.219 5.351 18.29 -42.221
1.7951786250050645 0.09 0.133 1.202 7.008 14.275 -40.611
1.8024920000025304 0.087 0.148 1.196 8.252 11.954 -40.565
1.8146695000032196 0.097 0.159 1.215 8.321 11.031 -42.611
1.8270242910075467 0.112 0.164 1.208 7.198 12.695 -45.756
1.8342157080041943 0.139 0.166 1.194 4.16 15.695 -48.084
1.8462784580042353 0.164 0.181 1.204 0.527 19.519 -49.084
1.8534530000033556 0.158 0.174 1.204 -2.725 21.962 -48.298
1.8655494999984512 0.137 0.148 1.205 -4.489 22.58 -46.847
1.8726833330001682 0.099 0.123 1.216 -4.954 18.534 -43.786
1.8847370830044383 0.088 0.095 1.192 -3.008 13.489 -40.87
1.896905041008722 0.076 0.081 1.178 0.046 9.099 -39.099
1.904290000005858 0.087 0.104 1.159 2.527 6.221 -38.046
1.9163953750103246 0.116 0.124 1.134 2.473 8.794 -38.718
1.9235318330029259 0.145 0.134 1.126 0.832 17.0 -42.328
1.9358179580012802 0.138 0.139 1.156 -1.405 23.137 -45.099
1.9428894580050837 0.118 0.145 1.174 -2.824 24.771 -46.122
1.9550216250063386 0.103 0.134 1.186 -2.344 23.679 -46.221
1.962156125009642 0.093 0.122 1.169 -1.557 20.214 -45.214
1.9743652080069296 0.1 0.122 1.201 -0.87 15.229 -43.481
1.986550708010327 0.097 0.112 1.186 -1.282 9.748 -41.809
1.99361754101119 0.125 0.092 1.165 -2.366 8.725 -41.427
2.005657750007231 0.162 0.066 1.125 -3.237 12.786 -42.656
2.0128163330082316 0.171 0.059 1.117 -4.626 18.817 -43.382
2.025077541009523 0.139 0.031 1.118 -4.229 21.443 -42.496
2.030646750004962 0.099 0.002 1.12 -1.45 20.496 -41.351
2.0440407499991124 0.086 -0.008 1.101 2.153 18.298 -40.183
2.056247833010275 0.059 -0.007 1.094 6.046 15.298 -39.336
2.0635079580097226 0.033 0.023 1.123 11.107 9.359 -38.702
2.0757660000090254 0.086 0.066 1.057 14.779 7.221 -44.718
2.08265566600312 0.081 0.124 1.081 15.802 15.595 -44.534
2.094723291011178 0.129 0.194 1.135 17.275 17.29 -48.771
2.1069563330092933 0.198 0.248 1.176 13.893 22.725 -48.649
2.114108333000331 0.209 0.287 1.215 6.427 25.359 -46.557
2.126394208011334 0.202 0.268 1.241 0.786 21.817 -42.672
2.1333502500056056 0.224 0.26 1.219 -4.588 18.359 -38.947
2.145477458005189 0.214 0.215 1.168 -7.076 15.74 -34.397
2.152607916010311 0.196 0.144 1.134 -6.458 13.328 -31.137
2.1647014580084942 0.168 0.105 1.104 -3.443 12.595 -30.153
2.176912208000431 0.147 0.091 1.09 -1.382 13.702 -30.504
2.1841373330098577 0.116 0.069 1.088 2.336 14.145 -30.374
2.1961330830090446 0.091 0.054 1.075 5.435 16.107 -33.206
2.2032854999997653 0.067 0.072 1.125 6.282 19.0 -36.87
2.2157049579982413 0.073 0.077 1.134 6.015 18.802 -40.901
2.2228571250016103 0.103 0.11 1.118 6.824 21.061 -45.336
2.235012208009721 0.167 0.166 1.097 5.962 28.573 -48.397
2.2421614160120953 0.201 0.211 1.098 3.29 37.298 -50.458
2.2542078330006916 0.18 0.223 1.161 2.13 43.137 -50.267
2.266724625005736 0.138 0.258 1.207 2.511 40.595 -46.893
2.273690833011642 0.121 0.258 1.229 3.939 33.679 -41.427
2.286059208010556 0.101 0.252 1.234 4.489 23.45 -36.45
2.2933718749991385 0.104 0.23 1.196 4.588 16.985 -32.466
2.3053138329996727 0.112 0.194 1.159 3.954 15.053 -32.084
2.312166250005248 0.125 0.198 1.128 4.26 17.466 -33.267
2.324606958005461 0.168 0.209 1.106 6.863 25.328 -35.053
2.3369365410035243 0.162 0.221 1.106 8.756 32.847 -36.038
2.3440599580062553 0.121 0.213 1.145 9.046 36.534 -36.176
2.3561095830082195 0.054 0.188 1.188 10.74 35.412 -36.71
2.3630962500028545 -0.001 0.163 1.205 12.389 27.87 -37.061
2.375190916005522 -0.047 0.156 1.196 12.359 16.634 -37.786
2.382335415997659 -0.045 0.16 1.156 6.809 8.008 -39.45
2.3944381660112413 -0.025 0.128 1.134 1.641 5.321 -44.802
2.406947833005688 -0.021 0.123 1.121 0.305 4.427 -49.702
2.4142065409978386 0.034 0.146 1.098 1.603 5.557 -50.992
2.4264142500032904 0.076 0.149 1.085 2.916 8.42 -50.939
2.4335295830096584 0.081 0.175 1.069 3.756 13.122 -51.595
2.4457188750093337 0.08 0.165 1.069 5.336 17.855 -52.336
2.452798750004149 0.063 0.19 1.106 6.847 18.802 -52.954
2.464958666008897 0.054 0.225 1.111 7.069 16.824 -52.634
2.472143375009182 0.085 0.252 1.127 9.435 17.198 -53.29
2.4842390830017393 0.117 0.319 1.155 10.252 17.137 -52.015
2.496565958004794 0.142 0.36 1.152 9.366 18.458 -50.71
2.503588583000237 0.141 0.397 1.159 5.687 22.168 -51.313
2.5159600410115672 0.125 0.404 1.184 2.374 26.519 -53.672
2.5228945830021985 0.127 0.413 1.203 -0.672 27.939 -54.603
2.5353290000057314 0.116 0.389 1.209 -3.069 25.382 -53.412
