Time AX AY AZ GX GY GZ
0.013833458000007681 0.011 -0.106 0.989 -5.145 -3.55 5.725
0.0263959170000021 0.012 -0.096 0.983 -6.115 -2.366 4.885
0.033262042000004044 0.016 -0.088 0.984 -7.618 -2.389 1.298
0.045718457999996076 0.013 -0.058 0.988 -8.588 -1.695 8.885
0.05253016700000046 0.031 -0.069 0.986 -10.328 -0.427 13.275
0.0651095830000088 0.029 -0.065 0.982 -12.092 1.649 18.985
0.07237050000000522 0.022 -0.091 0.99 -13.962 2.511 21.71
0.08444808299999806 0.021 -0.094 1.012 -15.374 3.786 26.092
0.09641487500000778 0.027 -0.104 0.995 -16.412 5.405 25.519
0.10373216700000398 0.011 -0.124 0.982 -16.771 4.855 23.595
0.1159962920000055 0.004 -0.134 0.986 -17.267 2.595 21.313
0.1230320420000055 -0.014 -0.136 0.965 -18.206 -0.115 19.687
0.13507604200000856 -0.019 -0.147 0.975 -16.023 -0.901 15.718
0.14209725000000617 -0.015 -0.155 0.953 -13.534 -2.336 9.931
0.1541993330000082 0.0 -0.125 0.96 -13.802 -2.908 11.282
0.1664218749999975 0.001 -0.104 0.978 -15.0 0.237 18.588
0.17345350000000792 -0.004 -0.106 0.953 -17.656 3.603 23.061
0.18546579200000224 -0.028 -0.144 0.954 -17.74 3.389 20.687
0.19284845800000028 -0.056 -0.129 0.94 -17.481 2.634 18.336
0.204853374999999 -0.075 -0.148 0.93 -17.229 1.206 16.702
0.21200312500000962 -0.091 -0.159 0.936 -14.908 -0.466 11.939
0.22392237500000078 -0.1 -0.147 0.949 -14.824 -1.817 10.794
0.2359333750000019 -0.088 -0.148 0.936 -14.885 -2.519 8.916
0.2430195000000026 -0.075 -0.134 0.959 -15.504 -2.977 10.076
0.2551228330000015 -0.064 -0.137 0.961 -16.916 -2.298 13.061
0.26209395800000834 -0.063 -0.164 0.98 -17.229 -3.992 11.908
0.27416979200000924 -0.061 -0.164 1.02 -17.802 -2.977 9.664
0.28615399999999624 -0.049 -0.149 1.031 -20.863 -0.977 12.939
0.29348600000000147 -0.061 -0.177 1.049 -23.214 1.466 16.366
0.3054936249999969 -0.064 -0.154 1.066 -24.542 3.855 21.985
0.3125214580000062 -0.084 -0.169 1.059 -27.771 5.847 27.969
0.324621417000003 -0.104 -0.182 1.059 -29.725 3.069 33.641
0.3318601670000021 -0.081 -0.196 1.049 -29.756 1.443 33.053
0.34390758300000357 -0.095 -0.208 1.043 -28.74 -3.649 31.458
0.3556863330000084 -0.055 -0.214 1.058 -32.153 -8.969 34.0
0.36280279199999654 -0.04 -0.272 1.127 -27.344 -16.198 28.603
0.3748344170000024 -0.004 -0.279 1.158 -20.695 -19.405 23.382
0.3819210830000088 0.044 -0.244 1.179 -21.107 -18.603 25.649
0.39400912499999663 0.074 -0.255 1.224 -23.282 -18.206 22.954
0.40573920799999996 0.086 -0.265 1.241 -24.779 -21.855 15.0
0.4130457079999985 0.111 -0.252 1.247 -21.603 -23.649 6.679
0.4250751670000028 0.123 -0.296 1.241 -16.183 -24.87 1.214
0.43236716700000954 0.141 -0.368 1.234 -8.168 -27.611 -9.099
0.44411741700000107 0.17 -0.404 1.254 -1.313 -29.817 -17.168
0.4562586670000002 0.222 -0.403 1.282 4.16 -29.13 -23.344
0.46354820800000596 0.263 -0.387 1.297 6.198 -25.359 -21.695
0.47551770799999815 0.345 -0.358 1.366 4.74 -21.626 -19.046
0.48252825000000144 0.396 -0.374 1.41 11.008 -10.809 -24.618
0.49482587500000363 0.409 -0.356 1.392 13.336 1.374 -28.504
0.5018608330000092 0.383 -0.359 1.287 15.809 15.962 -28.115
0.513907708000005 0.325 -0.363 1.175 15.16 24.137 -27.351
0.5259067920000007 0.261 -0.379 1.094 15.061 28.458 -27.603
0.5332590419999974 0.246 -0.364 0.999 18.0 30.305 -28.008
0.5452639580000067 0.216 -0.372 0.943 27.71 27.962 -32.878
0.5526004999999969 0.172 -0.365 0.915 39.214 25.366 -40.664
0.5646690420000056 0.171 -0.331 0.892 46.198 20.366 -48.282
0.5706110419999959 0.149 -0.314 0.87 48.0 12.275 -55.649
0.5839024170000044 0.18 -0.25 0.862 46.969 9.992 -58.313
0.5959993750000052 0.179 -0.228 0.838 49.595 7.824 -57.389
0.603240833000001 0.189 -0.208 0.818 49.389 7.618 -59.244
0.615245250000001 0.185 -0.198 0.817 46.42 7.832 -57.221
0.6225876670000048 0.179 -0.195 0.791 40.26 6.0 -53.099
0.6348223330000025 0.17 -0.199 0.79 36.405 7.649 -51.412
0.6421001249999989 0.163 -0.206 0.792 34.359 7.321 -52.458
0.6542462499999999 0.152 -0.198 0.8 34.718 6.626 -54.74
0.666132458000007 0.144 -0.182 0.803 34.817 8.26 -58.939
0.6732857080000088 0.13 -0.179 0.802 33.565 9.916 -57.855
0.6856988749999999 0.11 -0.196 0.781 30.557 9.397 -58.71
0.6930667080000035 0.075 -0.175 0.75 28.374 8.58 -59.015
0.705050166999996 0.062 -0.177 0.742 24.504 8.168 -58.023
0.7122938330000039 0.045 -0.18 0.744 23.122 8.977 -57.069
0.7243585000000081 0.022 -0.178 0.735 20.626 8.679 -57.168
0.7363615830000043 -0.0 -0.16 0.741 19.069 9.756 -60.092
0.7436796249999986 -0.004 -0.148 0.747 16.168 8.122 -60.809
0.7557016250000004 -0.014 -0.139 0.747 13.771 8.687 -58.191
0.7630313749999971 -0.043 -0.151 0.748 13.603 7.244 -58.55
0.7750910419999997 -0.056 -0.15 0.741 11.863 5.74 -58.687
0.7821517920000076 -0.086 -0.161 0.739 10.344 5.13 -58.885
0.7944412080000092 -0.122 -0.172 0.726 6.191 3.107 -58.252
0.8063874580000032 -0.151 -0.155 0.706 1.969 0.656 -55.924
0.8137200419999999 -0.194 -0.164 0.709 0.084 -3.985 -52.443
0.8254617500000023 -0.201 -0.156 0.712 -1.176 -7.42 -51.305
0.8328243750000013 -0.201 -0.13 0.711 -2.756 -9.603 -48.176
0.8446190000000087 -0.209 -0.131 0.728 -3.908 -12.45 -49.237
0.8563715420000051 -0.204 -0.111 0.726 -4.985 -15.435 -46.855
0.8634981250000067 -0.208 -0.107 0.731 -8.557 -18.313 -40.725
0.875292083000005 -0.218 -0.114 0.726 -10.13 -19.878 -39.336
0.882360625000004 -0.207 -0.114 0.748 -10.42 -22.679 -38.267
0.8941912080000094 -0.178 -0.123 0.781 -11.183 -24.099 -37.985
0.9059862080000016 -0.17 -0.136 0.812 -12.42 -23.962 -37.832
0.9130385420000096 -0.162 -0.138 0.839 -14.481 -22.389 -35.221
0.9248252920000084 -0.161 -0.144 0.849 -18.504 -20.191 -27.992
0.9307817079999978 -0.172 -0.151 0.851 -23.443 -19.191 -19.466
0.9434102080000031 -0.167 -0.147 0.869 -32.26 -16.679 -12.847
0.955499500000002 -0.161 -0.135 0.844 -44.481 -9.252 -5.237
0.9625522500000017 -0.175 -0.14 0.849 -43.221 -8.366 -1.916
0.974659458000005 -0.188 -0.13 0.856 -39.115 -10.053 -3.466
0.9863735830000024 -0.199 -0.094 0.885 -44.534 -12.023 -2.74
0.9935307920000014 -0.204 -0.104 0.916 -48.466 -10.389 -0.847
1.0051930830000089 -0.217 -0.135 0.921 -50.328 -10.099 -2.115
1.012049625000003 -0.21 -0.168 0.923 -51.168 -13.275 -2.939
1.0242672920000047 -0.184 -0.192 0.949 -50.046 -15.977 -2.832
1.0360981250000094 -0.159 -0.209 0.99 -47.366 -16.069 -1.855
1.0427953749999972 -0.123 -0.207 1.026 -48.786 -14.58 2.511
1.0551833330000022 -0.118 -0.227 1.059 -48.809 -13.321 7.053
1.0618354169999975 -0.123 -0.243 1.074 -50.267 -13.954 10.076
1.0739996670000096 -0.119 -0.253 1.086 -50.71 -14.466 13.542
1.0862103329999968 -0.121 -0.254 1.083 -50.71 -15.756 16.58
1.0928777499999995 -0.115 -0.244 1.114 -48.206 -15.55 22.42
1.1049280830000043 -0.109 -0.253 1.126 -43.344 -14.069 26.824
1.111621624999998 -0.087 -0.267 1.168 -38.992 -10.916 29.534
1.1238806670000088 -0.071 -0.268 1.184 -35.282 -6.489 34.672
1.1358741669999972 -0.083 -0.274 1.158 -32.824 -3.244 40.084
1.1429994580000056 -0.088 -0.267 1.155 -32.641 -2.29 44.252
1.1551880000000097 -0.104 -0.274 1.105 -31.328 -3.992 52.336
1.1620555420000045 -0.106 -0.284 1.063 -25.29 -8.824 54.489
1.1740580000000023 -0.102 -0.281 1.025 -18.817 -17.672 52.687
1.185937082999999 -0.065 -0.271 1.051 -11.603 -25.42 50.176
1.1933255419999966 -0.018 -0.271 1.096 -4.641 -31.733 49.015
1.205333207999999 0.048 -0.276 1.149 0.313 -33.595 47.58
1.212557583000006 0.09 -0.289 1.214 4.214 -31.947 44.473
1.2245816670000096 0.152 -0.254 1.239 5.672 -24.969 47.595
1.2318683750000048 0.145 -0.278 1.235 8.099 -16.504 54.702
1.2438840420000048 0.132 -0.295 1.19 10.679 -13.603 57.901
1.2559586250000052 0.127 -0.287 1.156 13.344 -12.145 59.947
1.263272416999996 0.134 -0.267 1.135 16.847 -13.061 60.656
1.2752585000000067 0.144 -0.259 1.109 20.481 -15.924 58.916
1.2823621670000023 0.162 -0.26 1.08 25.427 -19.481 56.336
1.2944528330000082 0.174 -0.275 1.098 29.244 -24.573 48.397
1.3001587079999979 0.215 -0.259 1.109 33.237 -28.656 43.229
1.3134075420000073 0.256 -0.222 1.131 37.038 -29.504 44.71
1.3256179170000024 0.289 -0.214 1.143 39.435 -24.779 47.115
1.3328209170000065 0.324 -0.184 1.15 36.962 -16.977 49.26
1.3450684170000073 0.358 -0.178 1.166 27.321 -8.542 52.45
1.3523276669999973 0.362 -0.183 1.17 19.779 -4.16 57.031
1.364623917000003 0.357 -0.183 1.163 21.336 -2.008 55.557
1.3718951250000089 0.369 -0.125 1.125 24.45 4.664 54.191
1.3839024170000016 0.328 -0.14 1.102 25.656 10.45 55.55
1.396258000000003 0.286 -0.194 1.046 21.252 11.878 49.672
1.403470083000002 0.241 -0.25 1.005 18.344 8.023 40.71
1.4157248750000093 0.227 -0.293 0.999 19.221 4.366 31.58
1.423004542000001 0.248 -0.271 1.017 23.069 3.275 27.718
1.4352743750000059 0.259 -0.266 1.042 25.313 3.473 25.595
1.4425260419999972 0.274 -0.264 1.043 25.229 4.931 22.893
1.454865208000001 0.271 -0.283 1.075 27.26 4.656 17.832
1.4619056669999964 0.269 -0.292 1.075 31.763 7.863 12.031
1.474174375000004 0.26 -0.279 1.049 33.588 12.908 10.71
1.4863933330000094 0.231 -0.266 0.993 31.55 17.069 11.382
1.4937077080000023 0.207 -0.253 0.941 26.687 18.244 16.649
1.505740541999998 0.165 -0.258 0.922 24.168 18.351 18.817
1.5130070419999981 0.157 -0.234 0.893 22.916 18.176 20.511
1.5250527500000004 0.152 -0.203 0.865 22.023 16.443 19.198
1.532306792 0.14 -0.194 0.841 21.55 14.695 15.267
1.5446877079999979 0.122 -0.19 0.83 20.26 13.427 12.305
1.551922250000004 0.103 -0.204 0.809 22.885 11.359 6.023
1.564131291999999 0.087 -0.185 0.796 23.092 7.733 2.672
1.5763701249999968 0.063 -0.203 0.787 20.092 4.863 -0.809
1.5836450000000042 0.052 -0.217 0.787 16.473 0.389 -5.061
1.5957516670000018 0.05 -0.2 0.788 14.061 -1.053 -5.099
1.6030124580000091 0.039 -0.206 0.777 12.29 -2.275 -4.275
1.6153630419999985 0.04 -0.214 0.795 11.168 -3.603 -3.908
1.6225687920000098 0.041 -0.203 0.796 10.176 -4.481 -2.962
1.6345538750000088 0.043 -0.188 0.808 8.405 -5.42 -0.588
1.6421255830000092 0.053 -0.191 0.807 5.496 -4.763 1.443
1.6543566250000055 0.056 -0.179 0.802 4.069 -2.458 2.817
1.6619263750000073 0.057 -0.179 0.808 1.733 -0.58 5.076
1.6741226250000096 0.069 -0.155 0.818 -0.634 0.809 3.824
1.6863826250000074 0.091 -0.125 0.823 -3.069 2.489 3.313
1.6936400830000053 0.093 -0.105 0.856 -5.176 4.328 3.26
1.7059237080000003 0.107 -0.105 0.876 -6.328 6.656 1.366
1.7134337079999966 0.105 -0.128 0.901 -7.305 8.015 -1.916
1.7254844579999968 0.091 -0.135 0.92 -6.962 10.802 -5.473
1.7327808330000067 0.072 -0.154 0.929 -8.008 12.901 -6.145
1.744823832999998 0.057 -0.164 0.944 -10.336 14.74 -3.947
1.7520842920000064 0.041 -0.156 0.938 -11.763 15.939 -3.725
1.7641518329999997 0.039 -0.162 0.957 -13.405 15.504 -3.809
1.7761345420000083 0.043 -0.156 0.962 -13.252 15.634 -5.405
1.7832246250000026 0.04 -0.154 0.972 -12.267 14.588 -7.183
1.7952516670000023 0.024 -0.194 0.981 -9.924 13.275 -11.328
1.8025987919999977 0.029 -0.211 1.002 -9.16 12.015 -13.168
1.8146086250000053 0.026 -0.231 1.01 -7.511 12.481 -12.924
1.821897375000006 0.026 -0.237 1.022 -7.817 12.672 -8.282
1.8339390830000042 0.032 -0.247 1.033 -7.656 13.206 -2.84
1.846194292000007 0.044 -0.218 1.039 -5.794 14.45 -1.656
1.8534321249999977 0.055 -0.174 1.035 -4.779 15.931 1.229
1.8657416670000089 0.055 -0.153 1.024 -5.908 16.84 3.794
1.872983750000003 0.044 -0.143 1.022 -5.0 17.573 1.519
1.8852570420000063 0.03 -0.146 1.011 -4.008 16.809 0.519
1.8925254580000086 0.011 -0.164 1.018 -2.076 15.435 -0.954
1.9046009580000032 -0.004 -0.176 1.002 0.656 14.115 -4.206
1.9118935420000014 0.0 -0.182 0.997 1.985 12.924 -3.214
1.9242233749999968 -0.001 -0.192 0.994 3.099 11.924 -2.229
1.9363671670000002 0.02 -0.171 1.008 2.45 10.931 0.16
1.9436686669999972 0.019 -0.151 1.005 4.282 10.855 0.0
1.955951583000001 0.026 -0.14 1.003 5.374 9.771 -1.603
1.9635097919999964 0.022 -0.145 1.013 8.702 9.252 -5.351
1.9757017920000095 0.033 -0.142 1.011 9.321 9.389 -7.687
1.9832404579999974 0.022 -0.148 1.016 6.824 9.366 -6.595
1.9954831670000033 0.014 -0.161 1.003 5.687 9.099 -6.405
2.00284841700001 0.008 -0.169 0.982 6.244 8.321 -6.626
