Time AX AY AZ GX GY GZ
0.019766124999989643 -0.127 -0.315 0.91 -2.603 -2.168 2.87
0.02677074999999718 -0.135 -0.296 0.911 -1.786 -3.863 4.542
0.03917074999998249 -0.129 -0.292 0.916 0.046 -5.321 4.466
0.046275332999982766 -0.123 -0.299 0.914 1.611 -5.824 3.679
0.05883716599998934 -0.124 -0.289 0.928 0.985 -6.824 5.718
0.07090354099997853 -0.126 -0.276 0.919 -0.046 -7.718 5.84
0.07816349999998806 -0.124 -0.268 0.909 -1.603 -6.443 7.443
0.09023737499998674 -0.125 -0.281 0.918 -1.87 -6.977 7.679
0.09730837499998302 -0.126 -0.294 0.91 -2.107 -7.427 8.634
0.10974595799999065 -0.153 -0.295 0.896 -4.0 -8.229 8.977
0.11684104099998649 -0.145 -0.319 0.88 -4.412 -11.817 8.45
0.12883570799999688 -0.139 -0.329 0.887 -3.519 -12.405 7.618
0.14091424999998026 -0.109 -0.308 0.878 -3.489 -12.947 8.542
0.14820324999999457 -0.103 -0.328 0.869 -4.092 -12.985 8.313
0.16022770799997943 -0.095 -0.306 0.862 -6.855 -12.0 12.092
0.16727141599997708 -0.087 -0.315 0.853 -8.038 -12.183 13.763
0.17906304099997783 -0.078 -0.3 0.85 -10.565 -13.153 14.893
0.18530954099998098 -0.085 -0.287 0.844 -12.733 -13.58 16.611
0.19820308299998146 -0.073 -0.269 0.846 -14.023 -15.977 16.779
0.21003433299998164 -0.07 -0.276 0.862 -15.534 -14.26 15.191
0.2171079579999855 0.012 -0.198 0.809 -15.336 -14.626 21.176
0.22915033299997845 -0.064 -0.226 0.888 -16.664 -15.992 13.351
0.24103487499999687 -0.046 -0.209 0.885 -20.542 -17.046 10.718
0.24802762499999176 -0.04 -0.228 0.91 -25.824 -18.626 9.099
0.2600962909999964 -0.031 -0.237 0.906 -26.557 -18.916 8.038
0.26717233299999066 -0.024 -0.244 0.921 -27.244 -19.298 9.763
0.27915333299998224 -0.024 -0.274 0.925 -28.763 -18.817 12.267
0.29107654099999536 -0.038 -0.302 0.971 -32.412 -21.611 12.832
0.29804945799997995 -0.021 -0.312 1.008 -33.55 -20.779 11.443
0.30980016599997384 -0.021 -0.306 1.028 -34.282 -19.969 13.695
0.3168909579999877 -0.03 -0.334 1.041 -32.305 -19.122 12.603
0.3288814999999943 -0.033 -0.347 1.035 -31.802 -18.947 13.244
0.3407426659999828 -0.037 -0.364 1.035 -31.473 -21.313 13.313
0.3477594999999951 -0.018 -0.393 1.066 -28.168 -24.115 13.13
0.35978041599997823 0.01 -0.421 1.101 -22.489 -25.099 10.901
0.36679049999997915 0.052 -0.44 1.153 -19.542 -24.473 13.374
0.3788681249999968 0.088 -0.449 1.183 -18.855 -22.107 16.176
0.3906402499999899 0.111 -0.411 1.212 -18.878 -19.053 19.756
0.3980003329999988 0.119 -0.409 1.205 -17.779 -16.725 20.794
0.4097458749999987 0.129 -0.394 1.214 -13.527 -15.855 17.924
0.4170377909999843 0.14 -0.384 1.224 -7.794 -15.046 14.26
0.429083874999975 0.134 -0.408 1.218 -1.763 -14.313 8.901
0.4366078749999929 0.149 -0.438 1.222 2.74 -14.137 6.71
0.44858991599997466 0.155 -0.464 1.233 7.366 -12.603 6.328
0.4609525409999833 0.178 -0.489 1.239 11.137 -10.069 6.962
0.4682715829999893 0.184 -0.469 1.209 12.611 -7.214 10.198
0.4802637079999954 0.187 -0.476 1.195 15.168 -6.359 8.931
0.4877864159999774 0.201 -0.465 1.195 18.015 -5.748 7.863
0.4997430409999879 0.189 -0.459 1.156 22.183 -5.0 2.855
0.507111832999982 0.197 -0.453 1.14 25.489 -5.481 -2.076
0.5193231249999997 0.2 -0.452 1.106 32.206 -2.557 -6.779
0.5264431249999859 0.208 -0.464 1.108 34.725 -2.779 -10.168
0.5384168329999852 0.207 -0.489 1.028 31.382 -9.405 -16.718
0.5504035829999907 0.237 -0.439 1.07 36.908 -4.389 -15.252
0.5577217079999741 0.3 -0.512 1.077 34.061 -1.427 -5.641
0.5699592909999751 0.263 -0.402 1.07 41.008 0.206 2.099
0.5772657909999737 0.296 -0.46 1.066 38.206 10.389 -5.092
0.5892828749999808 0.28 -0.435 1.025 37.206 13.237 -20.695
0.5965853749999894 0.308 -0.374 0.998 35.748 17.802 -28.893
0.6086074579999945 0.257 -0.364 0.982 34.802 17.962 -35.641
0.6206419579999931 0.236 -0.361 0.946 36.145 18.191 -47.939
0.6279952499999979 0.265 -0.35 0.951 36.153 21.557 -52.107
0.6399756249999768 0.247 -0.321 0.888 34.496 16.031 -59.443
0.6470840409999994 0.261 -0.326 0.894 32.313 17.282 -62.214
0.6590894160000005 0.253 -0.338 0.892 30.695 17.359 -62.824
0.666385374999976 0.235 -0.337 0.861 34.534 21.069 -62.756
0.678413082999981 0.209 -0.346 0.829 33.756 21.229 -63.031
0.690481707999993 0.198 -0.322 0.793 33.198 21.412 -62.191
0.6977395409999758 0.188 -0.315 0.78 32.023 21.305 -61.695
0.7097724159999927 0.177 -0.288 0.762 31.977 19.748 -62.321
0.716904833000001 0.172 -0.276 0.746 31.702 19.198 -64.992
0.7288652909999769 0.173 -0.276 0.755 31.366 19.855 -67.115
0.7408828749999827 0.152 -0.267 0.757 32.397 20.504 -66.237
0.7481675409999866 0.126 -0.269 0.722 32.076 19.26 -61.634
0.7602100409999935 0.092 -0.292 0.722 28.855 18.481 -60.351
0.7675254579999944 0.084 -0.256 0.714 23.267 17.573 -56.443
0.7795249999999783 0.08 -0.239 0.701 23.29 16.809 -56.786
0.7866149999999834 0.065 -0.211 0.732 22.344 15.573 -57.153
0.7986059999999782 0.053 -0.187 0.697 18.023 11.168 -60.885
0.8106292499999768 0.031 -0.18 0.722 19.008 16.733 -59.015
0.81797070799999 -0.002 -0.217 0.751 23.962 16.962 -61.695
0.8300500829999748 -0.042 -0.227 0.674 12.756 7.374 -60.313
0.8371277910000003 -0.034 -0.194 0.74 18.198 15.321 -57.756
0.849142707999988 -0.074 -0.239 0.708 10.443 12.183 -53.427
0.8550065829999767 -0.083 -0.223 0.708 9.061 10.565 -55.489
0.868430165999996 -0.082 -0.211 0.701 8.061 6.817 -55.542
0.880512207999999 -0.085 -0.2 0.716 7.13 5.229 -57.214
0.8877745409999989 -0.111 -0.208 0.729 7.969 3.649 -57.046
0.8997643329999789 -0.124 -0.209 0.715 7.573 1.359 -55.763
0.9070953330000009 -0.147 -0.219 0.719 3.893 -0.855 -53.695
0.9190648749999752 -0.158 -0.219 0.712 2.618 -1.832 -48.702
0.9249853749999772 -0.175 -0.225 0.722 -4.099 -4.374 -46.901
0.9382282079999982 -0.18 -0.188 0.736 -9.374 -5.305 -41.0
0.9499646249999785 -0.201 -0.179 0.73 -14.198 -8.748 -39.29
0.9570813329999908 -0.196 -0.132 0.756 -23.0 -9.84 -36.031
0.9689097499999946 -0.229 -0.149 0.764 -23.733 -10.344 -33.618
0.9809853329999783 -0.248 -0.155 0.746 -20.901 -3.489 -33.74
0.9877679999999884 -0.246 -0.186 0.747 -23.427 -13.076 -34.321
0.9996095829999945 -0.266 -0.218 0.75 -20.382 -12.45 -34.038
1.0063356249999913 -0.283 -0.263 0.74 -26.053 -23.649 -37.038
1.0182460829999798 -0.232 -0.244 0.811 -23.626 -26.595 -36.366
1.0301093329999844 -0.188 -0.245 0.844 -25.588 -28.282 -29.794
1.0368154579999782 -0.154 -0.228 0.898 -28.916 -27.336 -25.779
1.0491189159999976 -0.134 -0.227 0.951 -38.71 -21.191 -21.366
1.060906665999994 -0.12 -0.232 0.958 -45.214 -13.992 -15.29
1.0673394999999744 -0.157 -0.258 0.941 -40.847 -12.565 -10.008
1.0796240409999882 -0.161 -0.249 0.932 -38.458 -13.405 -9.672
1.0863945409999758 -0.175 -0.306 0.919 -41.42 -13.84 -7.336
1.0983775409999907 -0.176 -0.35 0.945 -49.053 -15.282 -3.939
1.1106134999999995 -0.186 -0.336 0.947 -53.053 -13.176 1.656
1.117374290999976 -0.19 -0.309 0.977 -52.0 -14.481 5.794
1.1293671659999802 -0.193 -0.305 0.97 -53.55 -13.641 15.748
1.1362205829999823 -0.189 -0.313 0.966 -54.153 -16.588 17.916
1.1484508749999804 -0.166 -0.302 0.955 -53.832 -20.832 18.16
1.1605557499999861 -0.132 -0.345 0.982 -50.282 -23.885 13.802
1.1672820000000002 -0.085 -0.365 0.994 -47.565 -24.794 10.985
1.179231207999976 -0.066 -0.419 1.046 -45.397 -22.794 12.45
1.1863503329999787 0.047 -0.667 0.947 -47.618 -12.71 -6.924
1.198437124999998 -0.086 -0.333 1.086 -51.16 -21.0 14.878
1.210164624999976 -0.072 -0.372 1.109 -46.908 -14.344 42.565
1.2172383749999938 -0.114 -0.379 1.051 -47.084 -16.084 44.702
1.2293142499999874 -0.113 -0.381 1.02 -45.779 -19.71 45.664
1.2364053329999933 -0.097 -0.368 1.022 -36.137 -23.466 40.824
1.2481638749999888 -0.061 -0.388 1.053 -27.664 -25.924 34.748
1.259977957999979 -0.015 -0.382 1.098 -19.893 -26.351 31.382
1.2673667079999973 0.0 -0.388 1.129 -16.718 -26.687 31.634
1.2789191249999874 0.025 -0.373 1.185 -16.718 -22.939 39.924
1.286093582999996 0.017 -0.407 1.173 -15.58 -18.351 47.321
1.2980122499999993 0.008 -0.41 1.131 -13.336 -14.305 55.588
1.3101881249999963 -0.012 -0.426 1.108 -9.557 -13.115 61.847
1.3172979159999727 -0.035 -0.413 1.013 -5.443 -16.985 65.718
1.3292817499999785 -0.019 -0.39 0.988 0.809 -24.023 63.298
1.3365840409999805 0.059 -0.343 1.022 7.473 -24.107 67.573
1.3486124159999804 0.125 -0.319 1.02 -3.55 -29.389 56.702
1.3606621659999973 0.171 -0.305 1.117 15.015 -35.183 52.389
1.3679065829999786 0.218 -0.248 1.148 17.351 -25.473 46.397
1.3799847909999983 0.279 -0.312 1.197 14.29 -23.534 45.855
1.3872398749999775 0.291 -0.271 1.24 15.344 -12.992 45.58
1.3993077499999913 0.256 -0.301 1.198 15.0 -3.069 50.641
1.4066082499999766 0.163 -0.405 1.077 14.832 -3.794 49.992
1.418633290999992 0.139 -0.426 1.01 15.397 -11.496 45.015
1.430640082999986 0.181 -0.419 1.017 18.725 -19.061 38.473
1.4379440829999908 0.245 -0.391 1.076 28.519 -20.939 29.061
1.4499884999999892 0.341 -0.394 1.133 33.336 -20.756 26.947
1.4570851249999919 0.356 -0.362 1.183 35.405 -17.962 25.595
1.469074040999999 0.361 -0.371 1.186 32.557 -11.29 24.489
1.4764396659999761 0.36 -0.37 1.159 29.344 -6.779 33.443
1.4887424579999902 0.328 -0.363 1.106 33.214 -5.924 38.473
1.5006464999999878 0.305 -0.34 1.01 34.382 -2.412 41.802
1.5079860829999916 0.289 -0.279 0.976 27.687 4.71 37.053
1.5202141659999882 0.296 -0.273 0.978 14.595 4.053 34.55
1.5274965829999871 0.308 -0.295 1.028 10.954 -1.626 33.443
1.5395419159999904 0.303 -0.295 1.01 22.122 -3.176 29.55
1.5468333749999772 0.281 -0.307 0.997 32.992 2.84 23.13
1.5589128749999759 0.274 -0.335 1.013 33.786 1.779 16.618
1.5662770829999886 0.28 -0.377 1.008 25.351 0.824 15.267
1.5784665829999938 0.297 -0.375 1.04 18.374 2.672 15.366
1.590863249999984 0.303 -0.386 1.039 18.649 3.771 14.969
1.5981982909999886 0.286 -0.367 1.027 26.794 6.336 15.168
1.6104101249999871 0.253 -0.352 1.005 30.847 8.031 14.107
1.6177149999999756 0.236 -0.335 0.997 28.0 6.725 13.076
1.6299788329999956 0.219 -0.337 0.974 25.405 4.168 10.969
1.6375242499999842 0.221 -0.331 0.973 26.511 2.977 8.168
1.6497438329999738 0.225 -0.365 1.0 32.229 3.885 3.374
1.657083957999987 0.226 -0.381 0.997 36.176 5.145 -2.504
1.6693350409999823 0.236 -0.377 0.993 35.229 8.359 -0.809
1.676616082999999 0.218 -0.396 0.975 33.0 10.214 1.221
1.6889285829999778 0.186 -0.39 0.937 28.893 11.137 3.122
1.7008716659999834 0.174 -0.377 0.903 27.756 11.076 6.046
1.7083975409999823 0.151 -0.353 0.87 27.542 11.183 9.275
1.7206502499999772 0.128 -0.324 0.845 26.748 9.901 8.328
1.7278967909999778 0.116 -0.301 0.835 26.771 7.237 6.244
1.7401581249999936 0.12 -0.292 0.823 25.55 9.641 3.74
1.7477817079999909 0.123 -0.263 0.809 22.542 10.573 6.008
1.7599762079999834 0.116 -0.262 0.773 19.214 7.298 2.458
1.7673159579999833 0.133 -0.251 0.777 15.641 9.718 3.405
1.7795032499999763 0.135 -0.285 0.751 16.527 9.916 -1.229
1.786778040999991 0.132 -0.282 0.757 17.573 13.901 0.565
1.7990644999999859 0.118 -0.275 0.748 15.443 16.611 4.702
1.806601124999986 0.091 -0.267 0.739 8.618 19.565 9.931
1.818632957999995 0.061 -0.239 0.741 2.672 21.565 14.87
1.8308641659999978 0.041 -0.246 0.705 2.214 22.336 14.939
1.8383943749999787 0.016 -0.231 0.707 4.664 18.817 7.519
1.8506439579999778 0.008 -0.202 0.729 4.985 17.916 4.649
1.8578980829999807 0.025 -0.179 0.76 4.13 17.344 2.29
1.8702669159999914 0.018 -0.172 0.788 -0.802 16.908 1.511
1.8774939579999739 0.009 -0.175 0.797 -4.176 15.26 -2.779
1.8895972079999979 0.01 -0.188 0.803 -4.71 13.244 -7.481
1.8969199579999838 0.018 -0.198 0.822 -5.802 12.153 -12.221
1.908858749999979 0.024 -0.226 0.857 -5.954 11.885 -13.695
1.9208638749999807 0.034 -0.227 0.926 -7.305 13.527 -11.802
1.928163665999989 0.019 -0.235 0.952 -12.084 15.649 -7.046
1.9399698329999921 -0.003 -0.25 0.969 -16.664 18.214 -1.794
1.947346374999995 -0.02 -0.247 0.969 -19.084 18.931 1.504
1.9593729999999994 -0.026 -0.232 0.97 -19.489 19.786 3.519
1.9663776249999785 -0.048 -0.247 0.939 -17.244 18.321 3.061
1.9781924159999846 -0.066 -0.264 0.94 -16.656 14.046 -1.496
1.9904397499999789 -0.045 -0.24 0.962 -16.573 12.718 -3.763
1.9975217499999758 -0.024 -0.282 0.988 -11.458 12.527 -5.672
