Time,AX,AY,AZ,GX,GY,GZ,T
0.0000,0.1790,0.1100,1.1040,3.0230,24.1680,-37.2520,31.9700
0.0004,0.2320,0.1050,1.0890,-0.6260,27.1450,-38.5190,32.1100
0.0008,0.2290,0.1060,1.1080,-2.1980,26.1980,-41.7710,31.9700
0.0012,0.2120,0.1060,1.1220,-2.7480,26.1070,-45.7100,32.0100
0.0016,0.1810,0.1080,1.1530,-2.0000,21.3590,-48.6870,31.9700
0.0021,0.1820,0.0880,1.1570,-1.3280,24.5650,-51.2060,31.9200
0.0025,0.1250,0.0780,1.1360,-1.1300,22.1980,-51.4660,31.9700
0.0029,0.1000,0.0750,1.1340,-1.7560,19.8020,-49.6030,32.0600
0.0034,0.1260,0.0670,1.1420,-1.1760,18.6110,-46.9620,32.0100
0.0039,0.1210,0.0780,1.1250,-3.2060,18.7630,-44.1370,32.0600
0.0045,0.1420,0.0620,1.1420,-3.6790,16.6870,-42.7480,32.0600
0.0049,0.1860,0.0660,1.1570,-3.7560,20.8400,-42.6260,32.0600
0.0053,0.2000,0.0760,1.1610,-2.9310,22.2290,-44.9010,32.0100
0.0057,0.2020,0.0830,1.1150,-3.9540,24.8850,-47.8930,32.0600
0.0061,0.1790,0.0940,1.1130,-5.9240,23.2210,-49.4200,32.0100
0.0066,0.1900,0.0920,1.1230,-6.0610,17.3890,-50.7790,32.0600
0.0070,0.1920,0.0740,1.1090,-5.3440,19.2820,-51.9080,32.0100
0.0074,0.1310,0.0600,1.1260,-6.2900,15.3130,-51.6950,31.9700
0.0077,0.1230,0.0670,1.1350,-6.0150,20.8850,-50.1220,31.9700
0.0081,0.1150,0.0620,1.1330,-5.3130,23.8630,-48.1220,32.0100
0.0085,0.1350,0.0500,1.1560,-3.7250,22.7790,-46.6720,31.9700
0.0088,0.1660,0.0350,1.1860,-0.9310,26.1370,-46.0310,31.9200
0.0092,0.1280,0.0450,1.1560,0.8700,26.1530,-45.5110,32.0600
0.0096,0.1110,0.0660,1.1050,-0.9310,23.1760,-45.0230,32.1100
0.0099,0.1220,0.0800,1.1070,-2.6720,16.6870,-45.3280,31.9700
0.0103,0.1530,0.0810,1.0940,-4.0920,14.7630,-46.0610,32.0100
0.0107,0.1560,0.0690,1.1500,-3.8780,13.1910,-46.5500,31.9200
0.0114,0.1720,0.0500,1.1680,-1.1910,17.0080,-47.2210,32.0600
0.0119,0.1270,0.0440,1.1560,-2.0610,22.7330,-46.2600,32.0100
0.0122,0.1360,0.0430,1.1360,-3.5270,22.1070,-44.3360,32.0600
0.0127,0.1820,0.0490,1.1370,-4.6110,22.7330,-44.5340,32.1100
0.0130,0.1890,0.0510,1.1400,-2.9310,20.9620,-46.6870,32.0600
0.0135,0.1710,0.0400,1.1350,-3.4810,19.8470,-48.1980,32.0100
0.0139,0.1540,0.0350,1.1830,-4.0000,18.2750,-48.8550,32.0600
0.0143,0.1650,0.0280,1.2310,0.4120,17.7860,-48.0760,32.0100
0.0146,0.1430,0.0370,1.1870,1.7710,20.8240,-45.9080,31.9700
0.0150,0.1190,0.0630,1.1760,-0.3360,21.5270,-43.0380,31.9700
0.0154,0.1360,0.0700,1.1750,0.4430,23.6640,-40.9160,32.0100
0.0158,0.1300,0.0800,1.1480,2.1070,24.4270,-39.5110,32.0600
0.0163,0.1350,0.0920,1.1060,0.7180,23.6030,-37.8780,31.9700
0.0169,0.1700,0.0870,1.1250,-1.4660,24.2900,-37.8470,32.0600
0.0173,0.1680,0.0910,1.1650,-0.7480,24.7020,-38.9620,32.0100
0.0177,0.1860,0.0960,1.1430,1.1450,25.1910,-41.4810,32.0600
0.0180,0.1770,0.0970,1.1320,0.7180,26.6720,-43.3440,32.0100
0.0184,0.1620,0.0900,1.1340,-0.7020,27.4050,-45.4500,31.9700
0.0187,0.1320,0.0850,1.1360,-1.4350,24.4730,-46.0310,32.0100
0.0190,0.1320,0.0830,1.1510,-2.8400,22.3660,-45.7250,32.0600
0.0193,0.1310,0.0760,1.1890,-1.8470,22.9160,-44.7330,32.0600
0.0196,0.1110,0.0700,1.1450,-2.7330,24.0460,-43.1450,32.0100
0.0199,0.1180,0.0850,1.1380,-5.2370,24.3510,-41.1300,32.0600
0.0204,0.1150,0.0870,1.1490,-5.5880,22.1830,-39.7560,32.1100
0.0210,0.1680,0.0800,1.1880,-4.4270,20.4730,-39.0840,32.0600
0.0213,0.1980,0.0750,1.2090,-0.0150,23.7250,-40.5040,32.0100
0.0216,0.1780,0.0810,1.1680,0.0760,25.3740,-42.3360,32.1500
0.0219,0.1650,0.0980,1.1600,0.1220,22.3660,-44.0760,32.0100
0.0221,0.1410,0.1220,1.1690,-0.2900,18.2600,-43.3590,31.9700
0.0224,0.2090,0.1190,1.0700,1.6180,25.9540,-44.5950,32.0100
0.0227,0.1390,0.1290,1.0780,-5.3440,31.2060,-42.7480,32.0600
0.0230,0.1320,0.1150,1.1050,-8.1980,27.9240,-41.4810,32.1100
0.0233,0.1520,0.0950,1.1490,-8.3970,27.8930,-40.0610,31.9200
0.0235,0.1720,0.0940,1.1580,-7.5110,27.4050,-40.9770,31.9700
0.0238,0.1480,0.0810,1.1820,-6.8850,23.9240,-42.8090,32.0600
0.0241,0.1420,0.0590,1.2240,-2.1070,19.3280,-44.0920,31.9700
0.0244,0.1590,0.0600,1.1900,0.0920,21.8470,-44.5190,32.1100
0.0247,0.1600,0.0690,1.1620,-0.9160,19.7560,-45.2060,32.0600
0.0250,0.1630,0.0770,1.1750,-2.5190,22.0310,-45.5270,31.9200
0.0252,0.1560,0.0770,1.1810,-2.3820,23.6640,-44.4430,31.9700
0.0255,0.1390,0.0880,1.1690,-4.0310,24.4580,-42.8550,32.0100
0.0258,0.1490,0.0850,1.1690,-4.5650,24.0610,-42.5190,32.0600
0.0261,0.1530,0.0780,1.1660,-5.4660,22.4270,-42.1070,31.9700
0.0263,0.1600,0.0770,1.1830,-6.1530,19.6640,-42.1070,32.1100
0.0266,0.1880,0.0800,1.1910,-6.3360,22.0920,-42.9620,31.9700
0.0269,0.1890,0.0700,1.2250,-4.5340,21.0990,-44.6870,32.0100
0.0271,0.1940,0.0640,1.2510,-0.3510,23.0530,-46.8550,32.0600
0.0274,0.1380,0.0660,1.2420,3.2370,24.5800,-47.5730,32.0100
0.0276,0.1300,0.0400,1.1860,7.8020,19.0840,-48.6110,32.0600
0.0279,0.1390,0.0780,1.1250,-0.2440,29.3130,-46.2140,32.0100
0.0281,0.1350,0.0900,1.1420,-3.4200,21.7100,-46.5800,32.0600
0.0284,0.1150,0.0900,1.1610,-5.9390,23.6950,-45.1600,32.0100
0.0288,0.1160,0.0820,1.2020,-4.6110,20.0460,-44.7330,32.0100
0.0291,0.1300,0.0740,1.1790,-4.5040,19.2370,-45.2060,31.9700
0.0293,0.1150,0.0680,1.2190,-4.5190,16.4890,-45.6340,32.0100
0.0296,0.1420,0.0690,1.2270,-1.8930,18.3510,-46.0310,32.0600
0.0298,0.1160,0.0670,1.1750,-2.4430,21.1450,-45.9240,32.1100
0.0300,0.0990,0.0870,1.1550,-4.4730,19.8170,-44.6560,31.9700
0.0303,0.1110,0.0720,1.2060,-3.1450,15.9390,-44.6720,32.0100
0.0305,0.1200,0.0650,1.2210,-0.7480,13.9080,-44.3360,31.9700
0.0308,0.1390,0.0660,1.2040,-0.5800,16.5040,-44.4580,32.1100
0.0310,0.1360,0.0730,1.1990,-0.5800,17.0840,-45.4960,32.0600
0.0312,0.1230,0.0750,1.1820,-0.9160,17.4810,-46.1530,31.9700
0.0315,0.1070,0.0830,1.1750,-1.6790,15.5730,-45.7710,32.0600
0.0317,0.1420,0.0730,1.2130,0.3820,13.7100,-45.4500,32.0600
0.0319,0.1500,0.0530,1.2370,4.3660,16.7330,-45.4960,31.9200
0.0321,0.1460,0.0410,1.2180,10.5800,17.6790,-46.3360,32.0600
0.0322,0.1180,0.0630,1.1460,2.5950,19.9080,-44.3970,32.0100
0.0323,0.1130,0.0670,1.1690,1.5880,15.4810,-43.6340,31.9700
0.0325,0.1150,0.0680,1.1530,1.4350,16.2440,-41.8320,32.1100
0.0327,0.1280,0.0750,1.1300,-0.9470,18.0310,-40.5190,32.0600
0.0330,0.1730,0.0820,1.1350,-3.6790,19.7710,-40.6260,32.0600
0.0332,0.1880,0.0800,1.1640,-3.3590,19.6030,-42.7020,32.0100
0.0334,0.1850,0.0810,1.1680,-2.2140,18.1830,-45.0840,32.0600
0.0336,0.1780,0.0720,1.1960,-0.5650,17.6180,-45.8170,31.9200
0.0337,0.1630,0.0640,1.2320,2.0920,17.5570,-45.7250,32.0600
0.0338,0.1750,0.0640,1.2060,5.0690,20.3970,-45.4960,32.0100
0.0340,0.1490,0.0720,1.1660,5.2820,20.1680,-44.6260,32.0600
0.0341,0.1780,0.0800,1.1630,5.5270,21.5110,-44.8400,32.0100
0.0342,0.1590,0.0920,1.1570,5.2210,21.7400,-45.9690,32.0600
0.0344,0.1380,0.0930,1.1200,3.6640,20.4580,-46.2900,32.0100
0.0347,0.1290,0.0940,1.1380,1.6640,20.6410,-45.3590,31.9200
0.0349,0.1650,0.0910,1.1520,1.7400,23.0990,-44.7790,32.0600
0.0351,0.1600,0.0970,1.1460,1.0690,24.8550,-44.7790,31.9200
0.0353,0.1300,0.1000,1.1290,-0.1530,23.9540,-44.7630,31.9700
0.0355,0.1230,0.1110,1.1340,-1.2820,22.0610,-43.1150,32.1100
0.0358,0.1520,0.1110,1.1520,-1.2820,22.3970,-42.1530,32.1500
0.0360,0.1750,0.1020,1.1510,-1.6790,21.0230,-42.5500,32.0100
0.0362,0.1950,0.0950,1.1800,-0.6260,22.3970,-44.1680,32.0600
0.0364,0.1680,0.0920,1.2120,2.4120,25.2370,-45.2370,32.0100
0.0366,0.1580,0.0960,1.1810,3.6490,24.7940,-45.8320,32.0100
0.0369,0.1570,0.1020,1.1570,2.3660,24.2600,-45.6180,32.0600
0.0372,0.1720,0.1010,1.1790,1.8930,24.6870,-45.4660,31.9700
0.0375,0.1860,0.0910,1.2040,5.1150,26.9310,-46.6410,32.0600
0.0377,0.1420,0.0890,1.1570,5.3590,28.4580,-47.4050,32.0100
0.0379,0.1000,0.1030,1.1400,3.4050,27.1450,-46.4730,32.0600
0.0381,0.0880,0.1120,1.1190,2.1220,25.8630,-44.9160,32.0100
0.0383,0.1030,0.1300,1.1040,0.9770,22.1220,-43.8930,31.9700
0.0386,0.1280,0.1220,1.1070,0.1680,21.3440,-43.5270,32.0600
0.0388,0.1430,0.1080,1.1300,-1.5730,22.9160,-43.1910,32.0600
0.0390,0.1580,0.0940,1.1360,-3.4050,24.6410,-43.5420,31.9700
0.0392,0.1550,0.0910,1.1530,-4.9160,24.6560,-44.9770,32.0100
0.0395,0.1640,0.0850,1.1920,-4.6260,21.9240,-47.0380,32.0600
0.0397,0.1410,0.0900,1.2460,0.5800,16.9620,-49.3440,32.1100
0.0399,0.1110,0.0900,1.1870,2.5190,19.7710,-48.3820,32.0600
0.0401,0.0810,0.1030,1.1650,0.6560,20.0460,-45.7860,32.1100
0.0404,0.0940,0.1070,1.1620,0.3210,21.0080,-43.0380,32.0600
0.0406,0.1070,0.1060,1.1430,-0.7020,19.7710,-40.5800,32.0600
0.0408,0.1320,0.1140,1.1340,-2.9770,19.4500,-40.7020,32.0100
0.0410,0.1570,0.1180,1.1400,-4.5800,18.1220,-42.1830,32.0600
0.0412,0.1630,0.1170,1.1400,-4.9920,18.3820,-43.7400,32.0100
0.0414,0.1380,0.1170,1.1690,-3.1600,18.8090,-45.2520,31.9700
0.0416,0.1240,0.1130,1.1490,-3.0530,18.0920,-45.1300,31.9200
0.0418,0.1170,0.1150,1.1660,-2.0310,19.0990,-44.3820,31.9700
0.0420,0.1280,0.1070,1.2000,0.4730,17.7250,-43.5570,32.0100
0.0422,0.1410,0.1060,1.1500,0.7180,19.0230,-43.0530,32.0100
0.0424,0.1210,0.1020,1.1610,-0.4430,16.9620,-42.7180,32.0600
0.0426,0.1440,0.1020,1.1480,-0.6560,17.8170,-42.9770,32.1100
0.0428,0.1380,0.0980,1.1340,-1.6640,18.3660,-43.4660,32.0600
0.0430,0.1260,0.0950,1.1390,-2.7020,17.4810,-44.3660,32.1100
0.0432,0.1250,0.1040,1.1500,-2.8400,18.3050,-44.1070,32.0600
0.0434,0.1320,0.0960,1.1680,-1.2520,17.2370,-44.2900,32.0100
0.0436,0.1160,0.1040,1.1300,-1.6490,17.4810,-43.3590,31.9700
0.0438,0.1380,0.1060,1.1400,-3.1760,19.0990,-41.9080,32.0600
0.0440,0.1330,0.1090,1.1840,-1.3890,18.3360,-41.3440,32.0100
0.0442,0.1360,0.1040,1.1550,0.9770,20.7180,-40.4120,31.9700
0.0444,0.1540,0.1040,1.1370,-0.9470,20.9920,-40.3210,32.0100
0.0446,0.1810,0.1060,1.1780,-0.3360,22.8700,-41.8170,31.9700
0.0448,0.1830,0.1030,1.1380,-0.7330,24.0610,-43.4810,32.0100
0.0450,0.1760,0.1210,1.1260,-3.5880,23.1150,-45.0530,32.0600
0.0453,0.1500,0.1170,1.1510,-4.9620,19.6950,-45.7100,32.0100
0.0455,0.1510,0.1060,1.1430,-5.4500,21.1600,-44.6410,32.0600
0.0458,0.1100,-0.1900,1.1450,-7.1910,25.6490,-45.9690,32.1100
0.0460,0.0500,-0.1520,1.3040,-1.7100,16.4430,-44.6110,31.9700
0.0462,0.0510,-0.1770,1.2120,6.0760,21.0530,-44.7940,32.1500
0.0464,0.0060,-0.1490,1.1120,4.2900,22.0760,-42.5650,32.1100
0.0466,0.0290,-0.1260,1.0740,-1.4500,19.2670,-40.3970,32.0600
0.0557,0.0750,-0.1310,1.1170,-4.0310,20.7630,-39.1760,32.1100
0.0626,0.0810,-0.1350,1.1330,-4.4890,21.5730,-40.1220,32.1500
0.0749,0.0730,-0.1340,1.0880,-6.9310,20.9010,-40.4730,32.0100
0.0816,0.0660,-0.1330,1.0950,-10.7630,17.7710,-41.1760,32.0600
0.0939,0.0780,-0.1480,1.1000,-13.2520,16.4120,-42.0310,32.1100
0.1062,0.0490,-0.1350,1.1340,-20.9920,19.6180,-40.2290,32.2500
0.1130,0.0830,-0.1810,1.2960,-12.6260,8.8850,-41.0230,32.0600
0.1252,0.1290,-0.1930,1.2810,-0.4890,15.4500,-41.2210,32.1100
0.1322,0.0930,-0.1870,1.1860,0.2290,21.2370,-41.1300,31.9700
0.1445,0.0880,-0.1600,1.1540,-2.7180,19.4810,-42.0920,32.1100
0.1515,0.1010,-0.1560,1.1740,-3.3130,17.7710,-42.6410,32.0600
0.1636,0.1120,-0.1430,1.1560,-3.1910,17.2370,-42.4430,32.1100
0.1761,0.1140,-0.1460,1.1540,-5.3890,16.5950,-41.9850,32.1500
0.1828,0.1160,-0.1610,1.1670,-7.3590,19.2670,-41.7860,32.2000
0.1950,0.1150,-0.1640,1.2160,-8.0310,21.3890,-41.5270,32.0600
0.2021,0.1050,-0.1800,1.2690,-3.7710,18.9920,-42.0150,32.1100
0.2142,0.1320,-0.1910,1.2790,1.6640,20.7790,-43.0230,32.1100
0.2265,0.1200,-0.1770,1.2700,5.2520,22.1680,-44.3050,32.0600
0.2337,0.1090,-0.1670,1.2150,5.9540,20.4580,-45.8020,32.1500
0.2463,0.1060,-0.1570,1.1820,5.5270,22.8400,-46.8550,32.0600
0.2532,0.0470,-0.1610,1.1730,2.8550,20.2440,-46.0310,32.1100
0.2654,0.1110,-0.2240,1.1250,1.6180,26.4430,-45.0990,32.0600
0.2725,-0.0100,-0.1560,1.2160,-6.8850,27.2370,-37.9850,32.1100
0.2848,-0.0300,-0.2080,1.2500,-4.5950,28.7180,-33.5270,32.0600
0.2967,0.0000,-0.1930,1.3340,2.0610,25.0380,-30.5190,32.2500
0.3040,0.0770,-0.1590,1.3510,16.1370,12.8550,-31.3280,32.1500
0.3160,0.1420,-0.1290,1.2110,23.6950,18.7630,-33.0230,32.0600
0.3232,0.1040,-0.1000,1.0830,20.5500,21.0230,-34.8700,32.1100
0.3352,0.1110,-0.0660,1.0290,12.2440,17.3740,-37.2370,32.0600
0.3425,0.1430,-0.0710,1.0240,4.0760,15.7860,-40.0000,32.1100
0.3545,0.1520,-0.0760,1.0360,-3.0840,14.1070,-43.4500,32.1500
0.3666,0.1720,-0.1090,0.9980,-8.3820,22.5190,-46.0460,32.0100
0.3738,0.1450,-0.1720,1.1220,-5.3890,17.1760,-47.8930,31.9700
0.3860,0.0910,-0.1360,1.2800,-0.3050,14.1680,-46.8090,32.0600
0.3927,0.1130,-0.1350,1.2020,3.8630,23.3890,-46.7480,32.0100
0.4052,0.0810,-0.1170,1.2050,6.0000,27.4660,-45.3740,32.0600
0.4124,0.0760,-0.1150,1.1610,6.1220,27.2670,-44.6110,32.2000
0.4245,0.0660,-0.1150,1.1570,4.5800,24.6870,-44.0310,32.0600
0.4366,0.0740,-0.1200,1.1440,3.4660,20.0150,-44.4430,32.1100
0.4438,0.0930,-0.1230,1.1580,1.7560,18.3660,-45.3440,32.1500
0.4561,0.0860,-0.1270,1.1520,-0.3360,18.2600,-46.3360,32.2000
0.4632,0.0850,-0.1280,1.1730,-1.8320,17.8630,-46.4120,32.1100
0.4753,0.0980,-0.1460,1.1840,-2.2750,19.2210,-46.7630,32.1500
0.4823,0.0640,-0.1500,1.2200,-0.5800,15.5420,-47.6030,32.2000
0.4945,0.0510,-0.1680,1.2640,3.9540,12.8400,-47.7710,32.1500
0.5066,0.0540,-0.1680,1.2250,6.9620,18.1370,-46.0920,32.1100
0.5135,0.0420,-0.1710,1.1970,7.0380,18.7940,-44.5650,32.0600
0.5262,0.0550,-0.1450,1.1620,5.8020,18.1070,-43.2370,32.0100
0.5330,0.0790,-0.1340,1.1180,1.3130,14.3820,-43.5420,32.0600
0.5452,0.0570,-0.1480,1.0970,-2.8700,5.9690,-44.0000,32.0600
0.5523,0.1200,-0.1220,1.0930,-11.6340,21.0840,-44.3970,32.1100
0.5646,0.0600,-0.1330,1.1880,-12.6260,12.6870,-43.6030,32.0600
0.5765,0.0170,-0.1100,1.1830,-12.2600,11.0840,-40.1070,32.2000
0.5836,0.0630,-0.1370,1.1910,-5.7100,17.1300,-41.0380,32.0600
0.5961,0.1240,-0.1570,1.2280,-2.0610,8.8850,-44.2440,32.1100
0.6031,0.1130,-0.1510,1.1680,-0.5500,27.1600,-44.6870,32.1500
0.6151,0.0570,-0.1180,1.1580,3.2210,14.1370,-45.4200,32.1100
0.6224,0.0550,-0.1170,1.1610,2.4270,12.3050,-42.8850,32.1100
0.6345,0.0660,-0.1240,1.1970,4.3210,14.0460,-41.2210,31.9700
0.6465,0.0840,-0.1180,1.1470,3.3740,15.6490,-39.9690,32.1100
0.6537,0.1100,-0.1060,1.1320,0.0310,14.3820,-39.9850,32.0600
0.6661,0.1550,-0.1120,1.1690,-0.9920,15.0990,-41.7250,32.1100
0.6731,0.1500,-0.1190,1.1980,0.9620,18.8240,-43.5420,32.0600
0.6853,0.1000,-0.1290,1.2220,4.2900,20.0920,-44.0920,32.1100
0.6926,0.0700,-0.1450,1.1790,6.0310,21.8170,-43.2520,32.0600
0.7045,0.0820,-0.1240,1.1640,5.9390,20.3970,-42.5650,32.1500
0.7116,0.1000,-0.1110,1.1330,5.0530,19.3740,-42.8240,32.2000
0.7239,0.0850,-0.1040,1.1050,2.7790,16.5340,-42.7790,32.1500
0.7363,0.0970,-0.1100,1.1070,-0.4730,13.9390,-41.7710,32.2000
0.7434,0.1260,-0.1080,1.1310,-2.3660,15.6640,-41.9850,32.0600
0.7555,0.1460,-0.1040,1.1380,-4.9620,13.0080,-43.6180,32.1100
0.7628,0.1450,-0.1050,1.1520,-5.4200,7.5570,-45.9390,32.0600
0.7747,0.1370,-0.1020,1.1460,-5.4810,6.9010,-46.6560,32.1100
0.7819,0.0940,-0.1110,1.1450,-6.9160,7.1600,-45.6490,31.9700
0.7942,0.1280,-0.1620,1.1470,-7.8470,14.4270,-41.7560,32.0600
0.8063,0.1130,-0.1500,1.2450,-3.3440,13.9390,-40.4120,32.1500
0.8133,0.1760,-0.1560,1.2090,-0.4890,22.9770,-41.3890,32.1500
0.8255,0.1490,-0.1480,1.1880,2.1220,24.6870,-43.6640,32.0100
0.8326,0.1550,-0.0990,1.0440,1.6640,30.7180,-44.9010,32.1500
0.8449,0.1040,-0.1070,1.1200,-0.0920,21.8780,-45.8320,32.1100
0.8519,0.1240,-0.1220,1.0500,-5.3590,30.7330,-46.5950,32.0600
0.8640,0.1300,-0.0930,1.1110,-12.5650,23.8320,-43.0840,32.2000
0.8762,0.1120,-0.0820,1.1820,-12.0760,24.1530,-40.7790,32.0600
0.8831,0.1090,-0.1340,1.2030,-5.6790,20.9310,-41.1760,32.1500
0.8952,0.1570,-0.0650,1.1240,-4.6720,29.5730,-40.9160,32.1100
0.9024,0.1580,-0.2020,1.1400,0.7940,24.8400,-47.2980,32.1500
0.9145,0.1000,-0.1230,1.2430,3.2820,18.4730,-43.7560,32.0100
0.9204,0.1200,-0.1420,1.1890,10.1220,25.3130,-44.4120,32.1500
0.9338,0.0910,-0.1330,1.1540,10.5340,20.3510,-45.0690,32.2000
0.9461,0.0940,-0.1120,1.0840,5.6640,20.1680,-44.5500,32.1500
0.9532,0.0570,-0.0930,1.0810,1.4050,18.5040,-43.2370,32.1100
0.9654,0.0380,-0.0810,1.0670,-2.0150,16.3970,-40.3510,32.1500
0.9724,0.0810,-0.0850,1.0360,-7.9690,14.3360,-37.0380,32.1500
0.9845,0.1570,-0.1030,1.0530,-13.6030,19.3280,-37.6950,32.1100
0.9966,0.1500,-0.1350,1.1820,-14.3050,17.2210,-40.3820,32.1500
1.0033,0.1640,-0.1430,1.3170,-6.9920,19.7400,-41.9540,32.2000
1.0156,0.1650,-0.1570,1.2730,3.4960,33.2670,-44.5190,32.1500
1.0224,0.1150,-0.1350,1.1790,5.8170,38.2440,-44.3360,32.1100
1.0349,0.1020,-0.1130,1.1350,3.2820,38.4430,-43.2370,32.0600
1.0418,0.1050,-0.1110,1.1740,4.2900,28.8550,-43.8630,32.1100
1.0541,0.1430,-0.1270,1.1850,7.2820,22.9920,-46.1370,32.2000
1.0664,0.1020,-0.1330,1.1350,5.5420,20.7330,-48.5950,32.1500
1.0734,0.0600,-0.1330,1.1010,0.6410,15.8780,-48.3210,32.2000
1.0859,0.0620,-0.1390,1.1180,-4.9010,13.3130,-46.0150,32.1500
1.0926,0.0990,-0.1650,1.2350,-2.8850,12.4270,-44.3510,32.0100
1.1049,0.1110,-0.1820,1.2320,0.2900,21.0530,-43.1760,32.1500
1.1118,0.0780,-0.1820,1.2440,3.6030,25.1150,-42.7330,32.1100
1.1244,0.0530,-0.1720,1.2390,8.7480,22.5950,-42.1070,32.1500
1.1315,0.0740,-0.1450,1.1880,9.8020,19.7250,-41.0840,32.0100
1.1437,0.1160,-0.1240,1.1710,8.4120,15.6340,-41.1300,32.1100
1.1560,0.1450,-0.1120,1.1550,4.9770,16.0310,-41.1910,32.0600
1.1629,0.1610,-0.0940,1.1710,1.8780,18.6870,-42.6410,32.1100
1.1756,0.1560,-0.0850,1.1780,-0.5800,18.1830,-44.9310,32.1500
1.1823,0.1330,-0.0910,1.1830,-1.8320,15.5570,-46.5190,32.1100
1.1946,0.1220,-0.0990,1.1900,-2.3210,14.5040,-46.2140,32.1500
1.2016,0.1430,-0.1160,1.2160,-3.2370,15.8320,-46.1980,32.1100
1.2138,0.1290,-0.1390,1.2500,-0.7020,19.1760,-46.2140,32.2000
1.2261,0.1410,-0.1550,1.2770,3.0690,24.0610,-46.6110,32.1500
1.2332,0.0950,-0.1620,1.2690,8.5650,28.0920,-47.5420,32.0600
1.2455,0.0670,-0.1450,1.2250,12.0150,24.5950,-46.4730,32.2500
1.2526,0.0600,-0.1220,1.1770,10.5950,26.0000,-44.3510,32.1100
1.2645,0.0720,-0.1010,1.1370,7.5880,21.3740,-42.3660,32.1500
1.2716,0.1330,-0.0940,1.1200,2.9160,21.4350,-41.7560,32.2000
1.2839,0.1420,-0.0980,1.1700,1.9540,20.2290,-43.7860,32.1500
1.2964,0.1330,-0.1030,1.1830,2.4580,19.0230,-46.7480,32.1100
1.3033,0.1050,-0.0930,1.1740,3.3590,16.2600,-48.0460,32.1500
1.3156,0.0870,-0.0960,1.1870,5.7710,15.6180,-47.8630,32.1500
1.3226,0.0400,-0.1380,1.2390,6.3660,22.0150,-45.3130,32.1100
1.3348,0.1530,-0.0890,1.2200,12.7180,19.2060,-44.3660,32.1500
1.3420,0.1110,-0.0850,1.1410,10.4430,26.4580,-43.9240,32.2000
1.3544,0.1000,-0.0750,1.1330,6.9310,19.6490,-44.7330,32.1500
1.3664,0.1160,-0.0720,1.1590,6.3970,18.1680,-45.8170,32.1100
1.3735,0.1280,-0.0770,1.1460,6.2440,19.5110,-46.7180,32.1500
1.3859,0.1280,-0.0860,1.1670,5.4200,19.1760,-47.1600,32.1500
1.3931,0.1120,-0.1170,1.2450,10.2440,18.6110,-47.2980,32.0100
1.4053,0.0990,-0.1350,1.2390,18.7480,22.5040,-46.6410,32.1500
1.4122,0.0640,-0.1090,1.1510,20.8850,21.7710,-46.6410,32.1100
1.4242,0.0540,-0.0700,1.0710,16.2600,17.8320,-46.6110,32.1500
1.4364,0.0660,-0.0450,1.0780,13.9080,18.2290,-45.8780,32.1100
1.4436,0.0670,-0.0110,1.0310,10.8850,18.7630,-44.4580,32.0600
1.4556,0.1060,0.0050,1.0030,3.0990,21.3590,-42.1680,32.1100
1.4629,0.1300,-0.0050,1.0420,-3.8630,22.2290,-41.8320,32.0600
1.4750,0.1100,-0.0420,1.1730,-3.1450,18.1980,-43.3740,32.1500
1.4821,0.1270,-0.0670,1.1980,1.2820,18.1370,-44.7480,32.1100
1.4942,0.1540,-0.0680,1.1910,3.1760,20.1530,-46.6260,32.0600
1.5067,0.1480,-0.0800,1.2150,7.0690,21.3890,-49.3130,32.1100
1.5138,0.0960,-0.0710,1.1860,7.9080,23.2980,-49.4960,32.1500
1.5260,0.0800,-0.0660,1.1700,5.8170,28.8090,-48.0920,32.1100
1.5330,0.0570,-0.0640,1.1260,5.0530,23.7860,-44.6410,32.1500
1.5453,0.0690,-0.0460,1.1040,1.1600,23.5730,-42.5950,32.1100
1.5521,0.0880,-0.0590,1.1290,-2.9770,21.3130,-41.0230,32.0600
1.5644,0.1200,-0.0710,1.1740,-1.6030,19.0230,-42.0310,32.0600
1.5766,0.1230,-0.0890,1.1590,-0.1680,16.2750,-44.4890,32.1100
1.5838,0.1070,-0.0720,1.1680,-0.1370,15.5420,-46.4270,32.0600
1.5960,0.0890,-0.0730,1.1550,0.9770,17.2370,-47.0080,32.1100
1.6031,0.0760,-0.0660,1.1430,0.7020,19.4050,-45.9850,32.0600
1.6152,0.0660,-0.0650,1.1790,0.2600,16.4730,-44.2600,32.2000
1.6223,0.0950,-0.0820,1.1960,3.2980,21.0230,-42.9920,32.0600
1.6347,0.0900,-0.0800,1.1840,5.7710,23.1150,-41.9690,32.0100
1.6419,0.0850,-0.0750,1.1190,4.4430,22.0150,-41.8930,32.1100
1.6539,0.1010,-0.0550,1.1250,1.4200,21.7560,-42.0000,32.1500
1.6660,0.0950,-0.0440,1.1070,0.7630,20.8700,-42.2290,32.0600
1.6732,0.0980,-0.0240,1.0890,-3.7560,18.0460,-42.0920,32.0600
1.6853,0.1160,-0.0240,1.0980,-7.3740,13.2820,-42.7790,32.1100
1.6925,0.1350,-0.0270,1.1280,-10.4120,11.9690,-43.8020,32.1500
1.7046,0.1350,-0.0330,1.1310,-11.3740,11.4350,-45.2370,32.1100
1.7166,0.1470,-0.0420,1.1990,-9.8170,9.8930,-46.0310,32.0600
1.7238,0.1560,-0.0660,1.2890,-2.2290,11.4960,-46.7020,32.1100
1.7358,0.1520,-0.0760,1.2380,2.3510,21.0380,-45.6340,32.1500
1.7431,0.1080,-0.0590,1.2040,2.6410,23.1300,-44.3510,32.1500
1.7555,0.1060,-0.0470,1.1740,2.0150,22.3210,-43.7100,32.2000
1.7628,0.0980,-0.0320,1.1620,3.2520,16.9160,-44.3210,32.1500
1.7747,0.1270,-0.0290,1.1320,0.1220,16.7180,-44.2440,32.1100
1.7819,0.1330,-0.0360,1.1480,-2.0310,17.4350,-44.9620,32.0600
1.7939,0.1440,-0.0460,1.1600,-2.8090,17.5570,-45.8630,32.1100
1.8062,0.1110,-0.0590,1.1890,-3.7860,17.4810,-46.2900,32.2500
1.8132,0.1240,-0.0760,1.2270,-1.6490,17.1450,-46.6720,32.1100
1.8255,0.1070,-0.0770,1.2120,-0.2440,19.3280,-46.4270,32.0600
1.8323,0.0860,-0.0680,1.2020,-0.0150,19.7710,-45.3740,32.0600
1.8444,0.1150,-0.0700,1.2410,2.1530,23.7250,-43.7250,32.1100
1.8505,0.1080,-0.0740,1.2110,4.8240,28.1070,-41.7250,32.0600
1.8641,0.1190,-0.0510,1.1580,2.8700,28.7630,-40.5650,32.1100
1.8761,0.1470,-0.0410,1.1460,0.1830,25.0080,-41.7400,32.0600
1.8833,0.1680,-0.0350,1.1820,-0.4730,19.9540,-44.9010,32.1100
1.8954,0.1560,-0.0210,1.1770,-0.5500,18.3050,-47.6950,32.0600
1.9027,0.1010,-0.0220,1.1600,-1.7100,14.2600,-49.7250,32.1100
1.9148,0.0630,-0.0390,1.1700,-1.7100,10.3510,-48.0610,32.1500
1.9207,0.1030,-0.0640,1.2350,0.4730,14.7630,-45.3740,32.2000
1.9341,0.1130,-0.0740,1.2580,3.2670,17.9080,-43.2820,32.1100
1.9463,0.1260,-0.0670,1.2250,4.5040,21.0990,-42.6560,32.0600
1.9533,0.0960,-0.0580,1.1850,4.4580,20.0460,-43.1910,32.1500
1.9654,0.1100,-0.0390,1.1640,4.0920,20.1530,-43.1300,32.0600
1.9727,0.1310,-0.0400,1.1640,3.9540,19.4810,-43.8930,32.1100
1.9850,0.1610,-0.0310,1.1500,3.3130,18.9160,-45.1150,32.0600
1.9922,0.1330,-0.0300,1.1550,2.0760,19.4500,-45.4350,32.1100
2.0042,0.1050,-0.0260,1.1570,0.5800,19.0690,-44.7180,32.0600
2.0165,0.0890,-0.0170,1.1570,-0.2440,17.5570,-43.6180,32.1100
2.0234,0.1100,-0.0220,1.1650,1.4050,18.6110,-42.4580,32.2500
2.0357,0.1250,-0.0080,1.1500,0.9310,17.5880,-41.0990,32.1500
2.0428,0.1340,-0.0200,1.1590,-1.2670,19.1760,-39.7860,32.0100
2.0550,0.1820,-0.0250,1.1870,-2.8700,15.6490,-41.0380,32.2500
2.0623,0.1950,-0.0280,1.2070,-0.0460,15.6180,-44.9620,32.2000
2.0743,0.1570,-0.0380,1.1880,0.9620,11.2210,-47.4660,32.1500
2.0864,0.1770,-0.0450,1.1930,-0.5500,14.4270,-48.4430,32.1100
2.0935,0.1470,-0.0510,1.2270,1.1760,18.3970,-48.7480,32.0600
2.1056,0.1170,-0.0460,1.1760,0.7790,20.5800,-47.1600,32.1100
2.1130,0.0980,-0.0350,1.1510,-2.4430,22.1680,-44.4730,32.1500
2.1250,0.1200,-0.0370,1.1560,-3.9690,21.4350,-43.7860,32.1500
2.1321,0.1370,-0.0430,1.1740,-3.0380,19.3740,-44.6260,32.1100
2.1443,0.1240,-0.0500,1.1550,-3.0990,15.7100,-46.2140,32.0600
2.1564,0.1280,-0.0440,1.1620,-5.9240,14.1980,-45.6030,32.1100
2.1636,0.1500,-0.0560,1.2500,-3.3590,13.6180,-44.3360,32.1500
2.1757,0.1440,-0.0560,1.2600,1.6640,19.9390,-44.3050,32.1100
2.1828,0.1120,-0.0520,1.1960,2.2600,21.2370,-43.0840,32.1500
2.1950,0.1730,-0.0400,1.1990,-0.2750,22.4730,-42.5340,32.1100
2.2022,0.2010,-0.0260,1.2730,2.8240,22.2900,-45.3740,32.1500
2.2142,0.1370,-0.0220,1.2300,7.3590,19.5880,-48.0610,32.1500
2.2264,0.0790,-0.0060,1.1460,4.9620,15.6790,-48.0460,32.0100
2.2334,0.1140,0.0030,1.1580,0.7480,15.8020,-45.6180,32.1500
2.2458,0.1430,-0.0270,1.1560,3.7560,13.6950,-45.5570,32.0600
2.2529,0.1340,-0.0520,1.2080,4.3360,17.6490,-44.0310,32.0600
2.2652,0.1370,-0.0560,1.2500,6.5650,18.8550,-44.7630,32.0100
2.2724,0.1230,-0.0450,1.1940,8.2140,21.3440,-45.0530,32.1500
2.2847,0.1210,-0.0360,1.1900,7.7710,18.8400,-45.1300,32.2000
2.2919,0.1520,-0.0150,1.1850,7.6950,19.2370,-44.8090,32.0600
2.3039,0.1450,0.0020,1.1600,6.7020,21.4050,-44.5500,32.1500
2.3164,0.1170,0.0090,1.1290,4.5800,22.0150,-43.0080,32.1500
2.3232,0.1350,0.0090,1.1290,2.0460,19.1760,-42.7020,32.0600
2.3357,0.1330,0.0090,1.1330,1.0530,19.2670,-43.4810,32.1100
2.3427,0.1240,-0.0020,1.1500,-1.0080,16.9470,-43.7560,32.0600
2.3550,0.1860,-0.0090,1.2220,0.5950,14.0460,-45.2060,32.2000
2.3619,0.2400,-0.0210,1.2190,3.5570,17.0230,-48.8850,32.1500
2.3741,0.1930,-0.0310,1.2340,2.8850,26.6110,-51.7710,32.1100
2.3800,0.1180,-0.0390,1.1830,5.1600,18.2440,-50.5500,32.1500
2.3937,0.1150,-0.0250,1.2190,4.5190,20.7790,-47.2980,32.2500
2.4060,0.1420,-0.0340,1.2170,6.6410,19.1760,-47.2060,32.2000
2.4129,0.1250,-0.0360,1.2070,7.4500,17.8020,-48.4430,32.0600
2.4252,0.1080,-0.0280,1.2140,9.8630,14.5650,-49.0990,32.2000
2.4322,0.1000,-0.0080,1.1850,10.7940,14.8550,-48.9310,32.1500
2.4444,0.1110,0.0210,1.1480,9.1910,15.3280,-47.6030,32.2000
2.4518,0.1410,0.0010,1.1740,7.6790,16.9470,-46.6410,32.0600
2.4639,0.1200,0.0000,1.1580,6.5950,18.9470,-44.7020,32.1100
2.4766,0.1660,-0.0120,1.1730,4.6560,21.0380,-43.7250,32.1500
2.4837,0.1590,-0.0040,1.1850,4.6870,22.6260,-44.2290,32.1100
2.4959,0.1360,-0.0050,1.2040,6.6720,20.5190,-46.4430,32.1100
2.5029,0.1550,-0.0160,1.1920,9.8630,16.6720,-49.9390,32.0600
2.5153,0.1550,-0.0130,1.1530,12.8550,9.3280,-53.2980,32.1100
2.5226,0.1340,0.0090,1.1530,10.1530,11.3590,-54.6410,32.1500
2.5347,0.1020,0.0000,1.1470,9.4350,12.8850,-53.1300,32.1100
2.5419,0.0880,0.0240,1.1270,8.0460,14.4120,-50.6110,32.0600
2.5541,0.0530,0.0420,1.0890,4.5800,12.6260,-48.3050,32.2000
2.5666,0.0710,0.0430,1.0850,1.1300,9.5270,-45.7250,32.1500
2.5738,0.1200,0.0380,1.1460,0.8240,8.2290,-43.7100,32.1500
2.5861,0.1820,0.0230,1.1720,5.2670,7.8930,-43.4200,32.2000
2.5935,0.1980,0.0300,1.1550,1.9850,14.7940,-44.5500,32.1500
2.6060,0.2270,0.0140,1.2000,7.0530,15.1150,-46.7020,32.0600
2.6132,0.1950,0.0200,1.1980,11.0380,20.2290,-48.6410,32.1500
2.6252,0.1720,0.0500,1.1140,10.9010,19.6790,-50.1680,32.1100
2.6323,0.1910,0.0680,1.0850,7.8320,18.6870,-52.2140,32.1500
2.6447,0.1770,0.0510,1.1120,7.7560,16.1980,-54.5650,32.1100
2.6516,0.1310,0.0420,1.1040,5.7100,15.8630,-54.6870,32.0600
2.6642,0.0930,0.0400,1.1160,3.3130,14.8400,-51.8780,32.1500
2.6766,0.1200,0.0330,1.1330,2.1220,16.4430,-48.0610,32.0600
2.6837,0.1530,0.0220,1.1510,2.1980,19.9240,-46.3050,32.1500
2.6960,0.1510,0.0110,1.1590,2.5800,19.9690,-46.4430,32.1100
2.7033,0.1660,0.0080,1.1760,3.9390,18.7180,-47.4200,32.0600
2.7156,0.1350,0.0180,1.1510,5.8470,18.2290,-48.1980,32.1100
2.7228,0.1710,0.0160,1.1020,5.5110,18.5800,-47.1300,32.1500
2.7352,0.1990,0.0320,1.1440,5.8020,17.2980,-47.7250,32.2000
2.7424,0.1760,0.0410,1.1490,5.3740,22.6110,-46.8240,32.1500
2.7547,0.1510,0.0620,1.1260,3.8170,23.5570,-45.9690,32.0600
2.7620,0.1950,0.0680,1.0940,1.9690,23.3590,-45.6640,32.1100
2.7742,0.2280,0.0720,1.0950,-0.6560,22.5650,-47.6790,32.1500
2.7863,0.2440,0.0810,1.0800,-2.9310,22.6560,-50.4120,32.2000
2.7936,0.2580,0.0700,1.1180,-3.4500,22.8090,-53.9240,32.0600
2.8055,0.2050,0.0560,1.1280,-2.9160,21.5420,-56.8090,32.1100
2.8129,0.1420,0.0310,1.1730,0.2750,20.2750,-56.3970,32.1500
2.8252,0.0830,0.0030,1.1840,0.9620,25.7860,-52.2440,32.1100
2.8324,0.0910,0.0070,1.1990,0.7790,27.5730,-47.7710,32.2000
2.8447,0.1060,0.0050,1.2010,1.0080,29.6490,-44.3820,32.0600
2.8519,0.1310,0.0160,1.2230,3.2980,27.7710,-44.2440,32.2000
2.8643,0.1770,0.0260,1.1940,4.9310,26.9770,-46.6110,32.1500
2.8766,0.1810,0.0400,1.1760,3.5270,22.7940,-50.1830,32.2000
2.8838,0.1700,0.0440,1.1660,2.9770,20.1220,-52.0460,32.1500
2.8962,0.1640,0.0430,1.1800,1.8930,18.3510,-51.8780,32.2000
2.9036,0.1700,0.0210,1.2410,3.3280,20.9770,-49.8630,32.0600
2.9157,0.1480,0.0100,1.2410,5.7560,28.5040,-47.5730,32.1100
2.9229,0.1250,0.0160,1.2040,5.5110,28.8240,-46.7330,32.0100
2.9352,0.1340,0.0390,1.2100,6.0920,25.0230,-48.0150,32.1500
2.9424,0.1350,0.0440,1.2410,9.4050,19.8170,-50.4430,32.1100
2.9547,0.0800,0.0350,1.2280,13.3280,15.7560,-50.7180,32.1500
2.9618,0.1360,0.0650,1.1710,9.8780,22.1070,-50.9470,32.1100
2.9740,0.0910,0.0730,1.1630,6.2140,21.8170,-49.6640,32.1500
2.9864,0.0950,0.0680,1.1560,4.2440,21.2060,-47.9850,32.1100
2.9936,0.0960,0.0630,1.1760,2.9310,19.3280,-45.8470,32.0600
3.0058,0.1540,0.0570,1.2130,2.5650,21.2210,-45.0230,32.2000
3.0129,0.1690,0.0510,1.2270,4.5040,24.6560,-45.9390,32.1100
3.0255,0.1540,0.0510,1.2350,6.7180,24.3510,-47.8020,32.1500
3.0326,0.1150,0.0600,1.2230,8.2140,24.0760,-48.8700,32.2500
3.0449,0.0970,0.0640,1.2430,11.1150,17.3890,-49.0530,32.2500
3.0521,0.1000,0.0740,1.1880,10.5950,19.0230,-46.6720,32.2000
3.0643,0.1180,0.1050,1.1850,4.8400,23.2520,-45.1450,32.1500
3.0766,0.1140,0.0910,1.2030,7.0230,15.9240,-44.0920,32.1100
3.0838,0.1360,0.0810,1.1990,10.0610,16.9770,-44.2290,32.0600
3.0962,0.1260,0.0890,1.1880,9.3740,16.9470,-45.5880,32.1500
3.1033,0.1120,0.0950,1.1540,8.4120,13.6030,-45.7710,32.0600
3.1157,0.1420,0.1090,1.1320,6.3820,14.2600,-44.7940,32.1500
3.1228,0.1350,0.0990,1.1510,4.6870,12.7790,-44.3970,32.1100
3.1352,0.1610,0.0950,1.1460,3.8170,13.2370,-44.5500,32.1500
3.1425,0.1730,0.0870,1.1830,3.8470,11.6950,-45.9240,32.1100
3.1548,0.1870,0.0760,1.2030,6.8550,9.8020,-48.7630,32.2500
3.1618,0.1610,0.0820,1.1770,7.8780,10.7020,-49.5420,32.2000
3.1742,0.1440,0.0790,1.1650,7.2520,9.6180,-48.9470,32.1500
3.1866,0.1770,0.0910,1.1570,7.2820,10.8400,-48.5950,32.1500
3.1939,0.2150,0.0870,1.1900,10.7020,9.1150,-51.9240,32.2000
3.2062,0.2210,0.0990,1.1700,13.0690,9.5110,-56.7480,32.1500
3.2134,0.1490,0.1090,1.1070,11.3740,8.0610,-57.2060,32.2000
3.2257,0.1070,0.1300,1.1100,8.2600,6.2440,-53.4660,32.1500
3.2331,0.1480,0.1190,1.1180,6.1070,6.5340,-47.9540,32.1100
3.2455,0.1880,0.1200,1.1410,4.3210,12.9470,-42.9770,32.1500
3.2526,0.1820,0.1150,1.1430,2.7480,18.2750,-39.6950,32.1500
3.2650,0.2330,0.1160,1.2000,3.5880,17.5880,-40.1370,32.1100
3.2722,0.3190,0.1100,1.2270,8.3510,18.7020,-45.3590,32.0600
3.2846,0.2900,0.1240,1.1780,11.5270,19.9850,-51.8780,32.2000
3.2967,0.2450,0.1250,1.1420,9.7560,17.0990,-54.8400,32.1500
3.3040,0.2610,0.1160,1.1530,8.5800,20.1680,-55.4660,32.1100
3.3162,0.2370,0.0970,1.1360,7.6030,24.5800,-54.8090,32.1500
3.3233,0.1610,0.0920,1.1290,4.6110,26.5340,-53.9390,32.2000
3.3357,0.1400,0.0770,1.1700,4.1980,26.9010,-52.7790,32.1500
3.3428,0.1090,0.0730,1.1900,6.0150,26.7630,-51.1760,32.1500
3.3553,0.1230,0.0620,1.2250,9.4350,23.6180,-50.4120,32.1100
3.3624,0.1180,0.1020,1.2070,9.5270,28.4890,-51.3590,32.2500
3.3747,0.0810,0.1030,1.1410,9.9390,19.7250,-49.6490,32.1100
3.3819,0.0860,0.1280,1.1500,9.8930,17.1450,-48.4430,32.1500
3.3942,0.1430,0.1140,1.2110,12.5800,14.5340,-48.6260,32.2000
3.4064,0.1590,0.1250,1.1690,14.1680,17.1450,-48.7630,32.0600
3.4136,0.1380,0.1440,1.1240,12.7480,17.6340,-47.3590,32.1100
3.4260,0.1290,0.1700,1.1220,9.5420,19.7400,-44.4120,32.1500
3.4331,0.1490,0.1800,1.1480,9.5730,16.5950,-43.1450,32.1500
3.4455,0.1960,0.1930,1.1310,8.9010,15.8630,-43.6790,32.1100
3.4526,0.2250,0.1840,1.1980,11.1150,12.6870,-46.2290,32.1500
3.4647,0.2380,0.1880,1.1710,12.9920,15.0530,-49.8630,32.2000
3.4719,0.1710,0.2020,1.1010,11.0690,11.7560,-51.4810,32.1500
3.4843,0.1790,0.2140,1.0610,6.0760,10.6560,-50.7020,32.2000
3.4964,0.1690,0.2200,1.0760,2.3970,11.4960,-48.7480,32.0600
3.5039,0.1600,0.2120,1.0820,-0.2900,13.7860,-46.3820,32.1100
3.5159,0.1830,0.1730,1.1580,-2.1980,14.6410,-45.6180,32.1500
3.5231,0.1800,0.1630,1.1670,2.6720,19.8780,-46.6560,32.1100
3.5354,0.1810,0.1580,1.1040,2.7790,16.5950,-48.0150,32.1500
3.5426,0.1890,0.1590,1.1190,0.9160,14.5040,-49.9850,32.1500
3.5548,0.1830,0.1370,1.1150,2.4270,12.5340,-51.8930,32.2000
3.5620,0.2640,0.0880,0.9040,0.9160,35.8630,-53.7400,32.2500
3.5745,0.1190,0.1300,1.0830,-4.5500,22.0920,-48.1370,32.1100
3.5865,0.1420,0.1960,1.1240,-5.6790,17.2670,-43.6490,32.1500
3.5938,0.1600,0.1510,0.9210,-9.5880,23.4350,-41.5110,32.1100
3.6060,0.2940,0.2390,0.9980,-17.4200,17.8930,-41.7710,32.1500
3.6131,0.2560,0.1980,1.2620,-0.6260,-3.7560,-47.4660,32.1500
3.6252,0.3220,0.1880,1.1890,6.1370,15.4350,-51.7100,32.1100
3.6326,0.2400,0.1980,1.1650,5.9240,22.4730,-52.2440,32.1500
3.6447,0.2300,0.2020,1.0830,2.6410,22.8240,-51.8780,32.2000
3.6521,0.1990,0.1950,1.1250,1.9080,19.0380,-50.2900,32.2500
3.6644,0.2060,0.1830,1.1140,3.6030,18.0000,-49.1450,32.1100
3.6767,0.2020,0.1610,1.1010,3.0690,17.4500,-49.3440,32.1500
3.6834,0.2060,0.1440,1.1070,2.9470,16.5040,-50.7630,32.1100
3.6960,0.1980,0.1450,1.1120,3.4200,15.8930,-52.7480,32.2000
3.7035,0.1680,0.1480,1.1070,3.0380,10.0920,-54.4730,32.1500
3.7156,0.1620,0.1490,1.0920,0.5650,11.3280,-53.3740,32.1100
3.7228,0.1640,0.1490,1.1000,-1.5730,12.9620,-51.6640,32.1500
3.7351,0.1850,0.1380,1.1300,-1.0840,18.7020,-49.7250,32.2000
3.7424,0.1890,0.1430,1.0900,-1.5420,25.9690,-48.8240,32.1500
3.7545,0.1520,0.1430,1.1270,-1.6030,21.0230,-49.9390,32.1100
3.7666,0.1650,0.1350,1.1470,0.0760,16.5800,-52.0000,32.0600
3.7739,0.1620,0.1400,1.1120,0.2140,11.6340,-53.8020,32.1500
3.7861,0.1520,0.1510,1.0920,-2.9470,4.9620,-54.1830,32.1100
3.7935,0.1770,0.1510,1.0830,-6.1980,2.1220,-52.7020,32.0600
3.8056,0.1980,0.1500,1.1420,-5.8020,13.6490,-50.5340,32.1100
3.8126,0.1860,0.1410,1.1760,-2.0760,19.3590,-48.9920,32.1500
3.8252,0.1590,0.1520,1.2010,-0.6560,18.8400,-49.1150,32.2000
3.8324,0.1730,0.1530,1.1820,0.2750,18.6410,-47.5270,32.1500
3.8444,0.1680,0.1800,1.1630,2.0000,16.2750,-46.9920,32.1100
3.8520,0.2230,0.1870,1.1590,3.6340,19.7400,-46.0310,32.0100
3.8641,0.2400,0.1760,1.1270,4.1980,18.5950,-47.1450,32.1500
3.8764,0.2450,0.1740,1.0880,2.3820,20.3210,-48.4120,32.1100
3.8835,0.2230,0.1730,1.1270,0.5190,17.3440,-49.8780,32.1500
3.8960,0.2340,0.1550,1.1580,2.7020,18.1830,-50.2750,32.2000
3.9032,0.2080,0.1560,1.1670,3.7400,24.0460,-50.3360,32.0600
3.9154,0.1670,0.1650,1.1420,2.5950,23.4500,-49.4350,32.2000
3.9226,0.1490,0.1670,1.1110,0.5950,22.2290,-47.5270,32.2000
3.9351,0.1690,0.1870,1.1160,-0.9920,21.6180,-45.1150,32.0600
3.9421,0.2220,0.1870,1.1610,1.2370,21.2060,-45.9390,32.1100
3.9546,0.2270,0.1890,1.1390,1.4960,25.7710,-47.1910,32.1500
3.9666,0.1700,0.1870,1.1200,-0.1980,21.6340,-48.8090,32.2000
3.9738,0.1680,0.1930,1.1330,-1.0080,16.9160,-48.3360,32.0600
3.9862,0.2280,0.1980,1.1430,-1.2370,16.4580,-47.2520,32.1100
3.9934,0.2440,0.1960,1.1620,-1.2060,19.9850,-47.3590,32.1100
