Time,AX,AY,AZ,GX,GY,GZ,T
0.0000,-0.0150,-0.1330,1.2490,-8.0460,16.9470,-48.8240,32.3400
0.0005,-0.0100,-0.1430,1.2640,-8.0150,18.4580,-48.1830,32.3900
0.0009,0.0000,-0.1590,1.3030,-5.3740,21.0080,-47.3280,32.3400
0.0013,-0.0220,-0.1650,1.2610,-3.8630,24.3970,-45.9080,32.2900
0.0019,-0.0330,-0.1510,1.2450,-3.3130,23.5270,-44.9920,32.3900
0.0023,-0.0440,-0.1390,1.2660,-2.8550,23.2210,-43.4500,32.4400
0.0027,-0.0210,-0.1410,1.2680,0.0920,22.8240,-42.1680,32.3900
0.0031,-0.0080,-0.1380,1.2210,1.5880,25.4960,-42.8400,32.3400
0.0035,-0.0190,-0.1040,1.1910,-1.8020,20.8090,-43.6340,32.4800
0.0039,-0.0290,-0.1000,1.2190,-2.4730,18.7180,-44.0000,32.3400
0.0042,-0.0030,-0.1090,1.2180,-2.1220,18.3660,-43.5270,32.2900
0.0046,0.0100,-0.1170,1.2830,1.3280,18.6110,-44.3970,32.3900
0.0055,-0.0010,-0.1200,1.2580,4.9770,20.6560,-44.0920,32.3400
0.0059,-0.0170,-0.1080,1.2360,4.8400,21.7250,-43.1600,32.3900
0.0063,-0.0060,-0.0930,1.2090,2.6870,22.0610,-42.0920,32.3400
0.0067,0.0070,-0.0820,1.2000,0.0610,23.1450,-41.6790,32.3900
0.0071,0.0080,-0.0900,1.2070,-2.2600,22.8240,-41.7400,32.3400
0.0075,-0.0120,-0.1250,1.2430,-2.8850,20.4580,-42.4730,32.2900
0.0078,0.0010,-0.1430,1.3120,-0.0610,19.2210,-42.5800,32.3900
0.0082,-0.0080,-0.1470,1.3140,4.1980,22.0610,-42.5190,32.3400
0.0085,-0.0060,-0.1520,1.3260,7.0080,20.5650,-41.9080,32.2900
0.0089,-0.0170,-0.1470,1.3300,10.8700,23.0380,-41.1600,32.4400
0.0093,-0.0340,-0.1250,1.2760,11.9540,22.7790,-39.6950,32.3900
0.0096,-0.0330,-0.0960,1.2470,10.1980,22.8090,-38.1530,32.3400
0.0100,0.0100,-0.0830,1.2570,10.0150,20.4120,-38.5190,32.3900
0.0103,-0.0030,-0.0740,1.2150,9.3280,20.0000,-39.0990,32.4400
0.0107,-0.0070,-0.0660,1.1930,5.8630,15.9080,-39.0840,32.4400
0.0110,0.0420,-0.0580,1.2060,3.9240,14.8090,-39.6640,32.3900
0.0113,0.0440,-0.0830,1.2490,6.0000,14.4430,-41.6180,32.4400
0.0117,0.0270,-0.0880,1.2240,8.0310,17.1600,-42.8700,32.2900
0.0120,-0.0080,-0.0700,1.1880,6.3970,16.3660,-42.6410,32.3400
0.0124,-0.0010,-0.0590,1.1890,5.0690,13.9850,-41.7860,32.2900
0.0128,0.0340,-0.0660,1.2190,6.0760,13.7560,-41.3590,32.4400
0.0131,0.0370,-0.0620,1.2090,7.4200,15.4810,-41.3280,32.3900
0.0140,0.0060,-0.0520,1.1700,4.9620,14.9010,-41.3280,32.3900
0.0143,-0.0110,-0.0550,1.2090,3.4050,10.2290,-40.6560,32.3400
0.0146,-0.0010,-0.0700,1.2470,5.2060,7.5730,-39.9240,32.3400
0.0150,0.0180,-0.0680,1.2210,5.7400,8.4430,-40.1220,32.2500
0.0151,0.0290,-0.0650,1.2070,4.1530,7.7560,-40.7940,32.2900
0.0153,0.0330,-0.0660,1.2300,3.4810,4.5500,-41.7400,32.4400
0.0154,0.0450,-0.0890,1.3000,8.3210,3.3890,-43.2820,32.3900
0.0156,0.0630,-0.1060,1.2810,11.1760,5.1300,-44.1830,32.4400
0.0157,0.0420,-0.0950,1.2400,11.2670,6.9010,-43.6340,32.4400
0.0160,0.0370,-0.0900,1.2300,9.9390,6.7790,-43.4660,32.4400
0.0161,0.0230,-0.0950,1.2540,10.1680,3.9690,-43.5270,32.4400
0.0165,0.0240,-0.0930,1.2540,10.7790,3.2820,-42.7940,32.3900
0.0167,0.0280,-0.0860,1.2540,10.1370,4.0460,-41.9690,32.4400
0.0169,0.0130,-0.0760,1.2600,10.0760,4.2600,-41.1450,32.3900
0.0170,0.0130,-0.0690,1.2350,9.1600,5.0380,-38.9160,32.2500
0.0172,0.0350,-0.0650,1.2630,8.6720,4.2900,-37.4500,32.3400
0.0173,0.0680,-0.0730,1.2550,13.4660,5.7250,-37.2820,32.4400
0.0175,0.0410,-0.0590,1.2530,8.9770,3.0230,-37.9690,32.4400
0.0176,0.0890,-0.0630,1.2460,11.4200,4.6560,-39.0990,32.2900
0.0177,0.0700,-0.0820,1.3670,17.0380,-0.5650,-39.9390,32.4400
0.0180,0.0840,-0.0820,1.2960,22.4430,1.0380,-39.8470,32.3900
0.0185,0.0410,-0.0420,1.2720,19.3440,2.9310,-38.9010,32.3400
0.0189,0.0500,-0.0270,1.2290,21.2060,-0.8700,-38.2140,32.3400
0.0192,0.0650,-0.0420,1.2060,20.1980,-1.6790,-38.1070,32.5300
0.0195,0.0760,-0.0520,1.2030,19.7100,-1.3740,-39.3440,32.3400
0.0198,0.0730,-0.0420,1.1670,17.2520,-0.3210,-40.3360,32.2900
0.0201,0.0790,-0.0480,1.1520,14.4120,0.0000,-41.1760,32.3400
0.0205,0.0670,-0.0940,1.2000,16.9310,1.1910,-42.1830,32.3900
0.0208,0.0680,-0.0880,1.2210,22.1980,3.8320,-41.5570,32.3400
0.0211,0.0240,-0.0590,1.1980,22.7630,7.4500,-38.4430,32.3900
0.0217,0.0150,-0.0370,1.1360,21.1910,6.9470,-34.5500,32.3400
0.0221,0.0700,-0.0100,1.1540,18.0610,7.4660,-31.6030,32.3400
0.0224,0.1030,0.0060,1.1110,19.2670,7.6640,-29.8630,32.3900
0.0227,0.1980,0.2030,0.9320,0.5190,38.5950,-23.0690,32.3400
0.0229,0.0280,0.0630,1.1080,0.1830,-7.6950,-30.4580,32.4800
0.0232,0.1870,0.0540,1.1500,5.9540,11.3280,-29.2980,32.3400
0.0235,0.2170,0.0240,1.1280,12.6410,0.2600,-35.0380,32.2900
0.0237,0.2500,0.0070,1.1240,11.9390,16.3210,-40.6260,32.3400
0.0240,0.1650,-0.0030,1.1210,11.0080,10.0310,-45.1300,32.3400
0.0243,0.1560,0.1150,1.0940,0.3820,25.9390,-43.6340,32.3900
0.0246,0.0840,-0.0140,1.2010,14.4430,-1.8630,-48.1370,32.3400
0.0248,0.1450,-0.0150,1.1310,13.7100,10.9470,-46.8090,32.2900
0.0251,0.0940,-0.0020,1.1720,12.9770,9.0690,-45.3280,32.3400
0.0254,0.1060,-0.0040,1.1370,14.8400,9.4350,-43.0690,32.3900
0.0257,0.0980,0.0090,1.1790,14.9470,12.4580,-40.8550,32.2500
0.0260,0.1250,0.0190,1.1620,14.3360,16.2440,-37.3280,32.3400
0.0262,0.1410,0.0340,1.1610,11.8170,17.7250,-35.1910,32.3900
0.0265,0.1700,0.0350,1.1600,9.9850,21.8020,-34.0310,32.3400
0.0268,0.2000,-0.0210,1.1850,13.5110,29.4500,-35.9080,32.3900
0.0270,0.1370,0.0620,1.2830,6.9310,21.2210,-36.5800,32.4400
0.0273,0.2440,0.0220,1.2390,14.8090,19.8470,-42.0610,32.3900
0.0276,0.1910,0.0330,1.1980,15.0840,23.0840,-46.3210,32.3400
0.0278,0.1430,0.0420,1.1880,14.6260,17.5730,-48.7330,32.3900
0.0281,0.1270,0.0490,1.1720,14.3660,17.9690,-49.6180,32.3400
0.0284,0.0860,0.0440,1.1940,15.4350,14.2750,-48.7330,32.4400
0.0286,0.0940,0.0580,1.1760,15.0230,13.3890,-46.8550,32.3900
0.0289,0.0840,0.0620,1.1680,14.2600,14.1680,-44.8850,32.3400
0.0291,0.1030,0.0560,1.2010,15.4500,15.7710,-42.5190,32.3900
0.0294,0.1020,0.0290,1.2450,21.0380,15.8020,-40.3660,32.3400
0.0296,0.0870,0.0700,1.1910,20.9010,22.5500,-36.1530,32.3900
0.0298,0.1220,0.1020,1.1480,16.6560,23.5270,-32.7330,32.3400
0.0303,0.1770,0.1260,1.1400,12.1830,24.6110,-31.4660,32.3900
0.0306,0.2100,0.1390,1.1620,9.8780,23.2520,-33.7560,32.3900
0.0308,0.1990,0.1370,1.1860,8.9160,18.8550,-36.6560,32.4400
0.0311,0.2240,0.1230,1.1800,8.3820,18.6260,-39.2060,32.2900
0.0313,0.2200,0.1170,1.1580,7.4500,19.0840,-42.5040,32.3400
0.0316,0.1980,0.1120,1.1680,5.5110,11.2210,-46.4270,32.2900
0.0318,0.1960,0.0910,1.2640,11.5880,11.1760,-50.5500,32.3400
0.0321,0.1360,0.0550,1.2720,18.5500,11.4050,-53.8170,32.3900
0.0323,0.0620,0.0750,1.2150,20.5340,13.0080,-52.7790,32.3900
0.0325,0.0180,0.0880,1.1840,19.2820,9.9690,-49.0380,32.3400
0.0328,0.0630,0.0860,1.1710,18.5040,9.5880,-45.4500,32.2900
0.0330,0.0930,0.0970,1.1750,15.9690,6.5340,-43.1150,32.3400
0.0333,0.1470,0.1320,1.1320,12.4730,11.9540,-41.8020,32.3900
0.0335,0.1120,0.1410,1.1170,7.0080,14.4430,-38.9770,32.3400
0.0337,0.1170,0.1510,1.1520,3.8780,12.4580,-35.6790,32.3900
0.0340,0.1930,0.1390,1.1990,6.4890,7.2520,-35.2520,32.3400
0.0342,0.2440,0.1110,1.2750,11.7860,13.6640,-35.8020,32.3400
0.0345,0.2110,0.1070,1.2670,16.6260,24.7630,-36.2600,32.2900
0.0347,0.2110,0.1150,1.1820,16.7020,30.1370,-35.2520,32.3400
0.0349,0.1950,0.1310,1.1580,15.0380,27.6790,-35.5730,32.3900
0.0351,0.2190,0.1530,1.1330,14.7020,24.4120,-37.8930,32.3400
0.0353,0.1910,0.1580,1.0960,13.0990,20.3820,-41.8320,32.3900
0.0355,0.1810,0.1580,1.0810,10.2600,14.7480,-45.4960,32.4400
0.0358,0.1860,0.1380,1.1450,12.8850,10.0760,-49.1150,32.3900
0.0360,0.1950,0.0850,1.1670,19.1450,8.0610,-53.2370,32.4400
0.0362,0.1860,0.0650,1.1600,22.0610,3.8630,-55.8170,32.4400
0.0364,0.2060,0.0580,1.1220,22.4270,6.5650,-56.3360,32.3400
0.0366,0.1840,0.0710,1.1100,21.8470,8.2440,-56.2440,32.4400
0.0369,0.1690,0.0900,1.0770,20.3510,12.8400,-53.6490,32.3900
0.0371,0.1860,0.1020,1.0640,17.1450,13.3130,-51.4350,32.3400
0.0373,0.1900,0.1220,1.0500,14.4730,17.9240,-49.0530,32.3900
0.0375,0.1970,0.1230,1.0370,11.9240,17.8320,-47.8320,32.4400
0.0377,0.2360,0.0980,1.1090,13.3130,19.8020,-47.6950,32.2900
0.0380,0.2310,0.0700,1.1400,20.1530,26.9160,-48.0460,32.3400
0.0382,0.1630,0.0700,1.0420,20.4890,32.5190,-46.8850,32.3400
0.0386,0.1420,0.0880,0.9970,17.5270,34.1830,-44.1680,32.3900
0.0388,0.1670,0.1030,0.9710,17.7250,34.9010,-43.8170,32.3400
0.0390,0.1560,0.1140,0.9150,15.9080,34.0310,-45.8630,32.3900
0.0393,0.1190,0.1250,0.8820,12.0760,31.4350,-48.3820,32.4400
0.0395,0.0880,0.1170,0.8440,8.9620,30.9160,-49.6950,32.3900
0.0397,0.0560,0.1210,0.8130,4.7020,30.3660,-50.9010,32.3400
0.0399,0.0340,0.0930,0.8020,1.1910,25.1760,-52.2900,32.3400
0.0401,0.0060,0.0620,0.8380,2.0000,19.9540,-52.1830,32.3900
0.0404,-0.0160,0.0470,0.8130,1.1600,23.3890,-49.0530,32.3400
0.0405,-0.0090,0.0590,0.7840,-1.4660,25.6180,-44.3820,32.2900
0.0407,-0.0180,0.0640,0.8190,-3.6640,25.3890,-39.9390,32.3400
0.0409,0.0380,0.0730,0.8080,-1.1600,26.6410,-36.2900,32.3900
0.0412,0.0290,0.1020,0.7600,-2.5500,30.1530,-33.2210,32.3400
0.0413,-0.0020,0.1270,0.7120,-8.0920,27.2060,-30.2140,32.2900
0.0416,0.0430,0.1370,0.7050,-12.9920,27.8020,-27.8630,32.2900
0.0418,0.0780,0.1170,0.7450,-16.2440,21.8170,-28.8850,32.3400
0.0420,0.1270,0.0940,0.7600,-19.0990,19.9390,-30.8090,32.3900
0.0422,0.1390,0.0570,0.8110,-19.8170,19.0690,-32.3660,32.2500
0.0424,0.1520,0.0520,0.8230,-20.2140,21.9690,-32.5340,32.3900
0.0426,0.1590,0.1150,0.7860,-24.0310,27.3440,-32.4120,32.3400
0.0428,0.1310,0.1720,0.7700,-28.3050,29.6490,-33.4350,32.3900
0.0430,0.0980,0.2530,0.6870,-51.0080,59.1450,-30.3360,32.2500
0.0432,0.0180,0.1610,0.9640,-43.4200,17.0530,-29.6490,32.3400
0.0434,0.2120,0.1460,0.9840,-36.0460,19.2060,-29.1150,32.3900
0.0436,0.2010,0.1190,0.9630,-34.5040,37.1300,-29.5730,32.4400
0.0438,0.2280,0.1290,0.8880,-41.5110,33.9540,-31.1910,32.3900
0.0440,0.2210,0.1390,1.0030,-45.0990,39.2820,-34.1530,32.2500
0.0442,0.2100,0.1230,1.0960,-38.8700,39.0530,-39.8020,32.3900
0.0444,0.1210,0.1180,1.0790,-35.3280,34.5800,-44.0150,32.4400
0.0447,0.0280,-0.1300,1.1530,-3.8170,25.4660,-41.9080,32.3400
0.0449,0.0170,-0.1260,1.1670,-2.8400,24.4120,-41.3590,32.3900
0.0451,0.0450,-0.1140,1.1280,-4.7630,25.2210,-42.0000,32.4400
0.0453,0.0400,-0.1310,1.1840,-4.5800,20.5950,-43.6340,32.3400
0.0455,0.0560,-0.1520,1.1850,-1.7400,18.9620,-45.5420,32.3900
0.0557,0.0290,-0.1630,1.1880,-0.9470,18.6720,-46.5800,32.3400
0.0628,0.0180,-0.1740,1.1880,-1.9240,20.8090,-45.9850,32.2900
0.0751,0.0020,-0.1740,1.1940,-2.7630,23.1450,-44.2440,32.3400
0.0873,0.0060,-0.1730,1.2010,-2.1830,24.9920,-42.7020,32.3900
0.0943,0.0190,-0.1560,1.1780,-3.3440,27.8020,-40.7020,32.3400
0.1066,0.0280,-0.1580,1.2020,-3.4500,28.5800,-40.1220,32.2500
0.1133,0.0190,-0.1490,1.1820,-3.8930,30.2440,-39.4810,32.3900
0.1256,0.0220,-0.1530,1.1900,-4.8700,26.7630,-39.6950,32.4400
0.1326,0.0530,-0.1580,1.2320,-2.8240,25.0690,-40.6260,32.3900
0.1448,0.0640,-0.1560,1.2310,0.6560,26.0460,-41.6950,32.4400
0.1571,0.0460,-0.1350,1.2140,2.0150,24.7180,-42.9010,32.2900
0.1640,0.0680,-0.0870,1.1740,2.9920,22.8700,-47.6490,32.4400
0.1767,0.0400,-0.0260,1.0040,-1.8170,18.9470,-52.7630,32.4800
0.1835,0.0210,-0.0260,0.9750,-14.0310,16.2600,-53.5570,32.3900
0.1956,0.0460,0.0190,1.2230,-23.6950,7.5570,-52.4430,32.4400
0.2027,0.1060,-0.1530,1.3440,-0.9310,2.0760,-55.9540,32.3900
0.2149,0.0270,-0.2430,1.2600,2.6870,25.2670,-52.0610,32.4400
0.2276,-0.0060,-0.2060,1.1910,-2.4120,20.8700,-47.7400,32.2900
0.2344,0.0380,-0.2030,1.1970,-6.7790,34.7790,-44.3510,32.3400
0.2464,-0.0060,-0.1710,1.2610,-4.7940,25.9240,-41.9240,32.3900
0.2533,0.0650,-0.1540,1.1860,-4.3660,30.3970,-39.7100,32.3900
0.2656,0.0420,-0.1460,1.1940,-7.3590,28.8090,-40.9770,32.3400
0.2728,0.0920,-0.1500,1.2100,-8.2140,27.3890,-43.4660,32.3900
0.2851,0.0820,-0.1480,1.1990,-9.6180,29.2060,-47.3280,32.3400
0.2972,0.0390,-0.1600,1.2040,-10.7180,25.0380,-50.2600,32.3900
0.3040,-0.0010,-0.1690,1.2490,-6.9770,21.7860,-50.9620,32.4400
0.3160,-0.0490,-0.1810,1.2270,-5.1300,21.8630,-48.4270,32.4800
0.3230,-0.0220,-0.2040,1.2760,-2.3510,19.0080,-45.6950,32.4400
0.3352,-0.0090,-0.2140,1.3210,3.4960,25.8780,-43.3280,32.3400
0.3475,-0.0310,-0.2150,1.2780,9.4660,27.3890,-41.3130,32.3900
0.3544,-0.0270,-0.1820,1.1860,9.0690,29.2980,-39.4050,32.3400
0.3665,-0.0290,-0.1510,1.1550,6.2600,26.6110,-38.4430,32.3900
0.3735,-0.0190,-0.1510,1.1500,4.5500,22.3820,-38.1220,32.4400
0.3856,0.0090,-0.1540,1.1580,3.3890,20.7480,-38.6720,32.4800
0.3927,0.0390,-0.1490,1.1640,3.0530,20.3820,-40.3820,32.4400
0.4051,0.0650,-0.1510,1.1660,4.4890,27.8470,-42.4730,32.3400
0.4172,-0.0110,-0.1610,1.2020,7.2520,27.6490,-41.5570,32.4800
0.4245,-0.0430,-0.1470,1.1720,8.7330,29.0990,-38.7480,32.3400
0.4366,-0.0590,-0.1130,1.1230,6.4430,28.0760,-36.3050,32.2900
0.4436,-0.0140,-0.1140,1.1370,3.9850,24.0610,-34.8240,32.4400
0.4556,0.0420,-0.1220,1.1520,2.9920,24.2900,-36.0610,32.2900
0.4625,0.0600,-0.1160,1.1190,3.0840,25.0840,-39.3890,32.4400
0.4751,0.0260,-0.1220,1.1430,-0.0460,13.8470,-42.7630,32.4800
0.4873,0.0200,-0.1280,1.1740,-0.5040,16.6410,-43.8930,32.3900
0.4942,0.0250,-0.1600,1.2250,4.6260,16.0150,-45.0690,32.3400
0.5066,0.0170,-0.1670,1.1840,5.5110,19.0380,-44.3050,32.3900
0.5134,0.0020,-0.1680,1.1750,4.0610,19.5880,-43.0380,32.4400
0.5257,-0.0040,-0.1580,1.1760,3.1910,22.2140,-40.7180,32.2900
0.5327,-0.0070,-0.1480,1.1560,2.4730,22.4120,-39.2060,32.4400
0.5451,-0.0030,-0.1440,1.1710,2.1070,18.7480,-38.6110,32.4800
0.5572,-0.0020,-0.1310,1.1330,2.3360,19.3280,-39.1910,32.3400
0.5640,-0.0160,-0.1130,1.1080,0.1070,15.4810,-39.5570,32.4400
0.5762,-0.0040,-0.1070,1.0960,-3.8020,12.4890,-40.1070,32.3900
0.5834,0.0130,-0.1170,1.1470,-4.0920,12.1830,-40.6720,32.4400
0.5956,0.0110,-0.1280,1.1580,-2.0460,15.0690,-40.4890,32.3400
0.6013,0.0160,-0.1370,1.1400,-2.4580,15.0990,-40.0310,32.3400
0.6147,0.0240,-0.1360,1.1510,-3.2820,16.1830,-39.8170,32.3900
0.6268,0.0260,-0.1310,1.1410,-3.4960,20.1680,-39.4960,32.4400
0.6341,0.0180,-0.1500,1.1640,-3.0530,19.4200,-38.5800,32.3900
0.6460,0.0410,-0.1760,1.1710,0.0150,20.3210,-37.8780,32.3400
0.6533,0.0350,-0.1910,1.1830,-1.3740,18.2750,-37.9240,32.3400
0.6653,0.0730,-0.1660,1.1670,-0.2440,27.8780,-38.9920,32.4400
0.6775,0.0560,-0.1710,1.1630,0.7480,20.9920,-40.6110,32.3400
0.6847,0.0490,-0.1400,1.1700,1.8930,23.1450,-42.8700,32.3900
0.6969,0.0120,-0.1340,1.1440,2.0460,16.3210,-43.9080,32.3400
0.7039,0.0380,-0.1100,1.0950,-0.6870,17.4960,-43.5880,32.3900
0.7161,0.0350,-0.1080,1.1180,-3.5110,17.2370,-43.9690,32.2500
0.7233,0.0340,-0.1160,1.1280,-4.5190,18.8400,-44.4120,32.2900
0.7354,0.0140,-0.1330,1.1670,-3.4660,16.1070,-45.0990,32.4400
0.7475,0.0270,-0.1520,1.1880,-0.2440,18.8550,-44.7940,32.3400
0.7548,0.0120,-0.1590,1.1950,2.3820,20.0000,-44.6720,32.3900
0.7669,-0.0050,-0.1560,1.1930,4.8090,20.2140,-43.8020,32.3400
0.7740,-0.0060,-0.1490,1.1740,5.8780,16.7020,-42.9770,32.3900
0.7860,0.0190,-0.1450,1.1590,5.4500,15.5270,-42.6560,32.3400
0.7934,0.0270,-0.1290,1.1530,4.8850,15.8170,-42.8240,32.3900
0.8055,0.0190,-0.1240,1.1270,2.2290,14.0310,-42.7630,32.4400
0.8175,0.0250,-0.1150,1.1420,0.3360,11.9080,-43.0690,32.4400
0.8246,0.0350,-0.1140,1.1680,1.8630,9.7400,-44.6110,32.3900
0.8370,0.0540,-0.1320,1.1480,2.1830,11.7400,-45.7560,32.4400
0.8442,0.0460,-0.1360,1.1680,3.2670,12.2440,-46.7480,32.3900
0.8563,0.0420,-0.1290,1.1400,2.6720,13.6340,-47.1150,32.4400
0.8637,0.0370,-0.1280,1.1480,0.6560,14.4270,-46.6720,32.3900
0.8759,0.0330,-0.1170,1.1620,0.4270,16.3210,-46.0310,32.4400
0.8831,0.0160,-0.1150,1.1620,0.3510,15.0840,-44.9470,32.3400
0.8951,0.0340,-0.1160,1.1560,0.0150,16.6260,-44.0760,32.3900
0.9072,0.0400,-0.1190,1.1660,-0.1070,17.0690,-44.2600,32.4400
0.9145,0.0340,-0.1180,1.1590,-0.4270,17.4960,-43.9390,32.3900
0.9266,0.0200,-0.1150,1.1560,-0.4580,15.4050,-43.6790,32.4400
0.9336,0.0290,-0.1100,1.1640,-0.1070,15.6340,-43.4660,32.4800
0.9459,0.0130,-0.1040,1.2190,-0.7020,14.0610,-43.7860,32.4400
0.9528,0.0710,-0.1340,1.2210,5.7250,14.2600,-45.4500,32.3900
0.9651,0.0610,-0.1390,1.2090,9.6030,18.2440,-47.0380,32.3900
0.9772,0.0100,-0.1220,1.1760,9.8930,16.4730,-46.5800,32.3400
0.9842,-0.0090,-0.1000,1.1270,5.9540,18.1220,-43.9240,32.3900
0.9964,0.0190,-0.0770,1.1240,2.4430,17.4050,-42.1980,32.4400
1.0037,0.0340,-0.0800,1.1250,-1.0990,17.1150,-41.3590,32.3900
1.0158,0.0370,-0.0840,1.1410,-2.9310,17.2060,-41.0990,32.4400
1.0226,0.0630,-0.1030,1.1740,-3.8170,16.7630,-41.5270,32.3900
1.0348,0.0820,-0.1070,1.2120,-2.0610,18.4890,-43.3280,32.4400
1.0470,0.0620,-0.1200,1.1870,0.6260,22.4580,-44.4730,32.3400
1.0540,0.0400,-0.1120,1.1740,-0.3050,19.2060,-44.9010,32.3900
1.0664,0.0620,-0.1230,1.1980,-0.1370,19.3590,-46.5800,32.4400
1.0730,0.0330,-0.1300,1.2090,1.8780,17.9080,-48.1070,32.2900
1.0857,0.0150,-0.1170,1.1680,0.5650,17.6490,-47.8320,32.2500
1.0924,0.0210,-0.1210,1.1580,-1.3130,18.7790,-46.4890,32.3900
1.1047,0.0100,-0.1060,1.1780,-4.6410,24.6410,-43.7250,32.4400
1.1171,0.0230,-0.1170,1.2340,-2.7330,17.2980,-42.0920,32.3900
1.1238,0.0500,-0.1120,1.2130,-1.7860,23.4500,-40.0150,32.2900
1.1361,0.0460,-0.1090,1.2240,-1.2210,24.3360,-38.6720,32.3400
1.1430,0.0640,-0.1120,1.2420,2.8090,25.8170,-38.0920,32.3900
1.1552,0.0310,-0.1120,1.2390,6.6560,26.1830,-37.9850,32.4400
1.1623,0.0570,-0.0880,1.1790,7.4810,21.3890,-39.4200,32.3900
1.1748,0.0690,-0.0810,1.1460,4.3510,18.8400,-42.5040,32.3400
1.1872,0.0710,-0.0760,1.1690,2.3970,13.0230,-46.5190,32.3900
1.1943,0.0710,-0.0930,1.1690,0.4730,12.4270,-49.4960,32.2900
1.2064,0.0270,-0.0960,1.1710,-1.2670,11.9080,-50.2600,32.3400
1.2134,0.0030,-0.0910,1.1590,-2.7790,13.1760,-49.1150,32.3900
1.2257,-0.0110,-0.1060,1.1800,-3.7100,14.8240,-47.1600,32.3400
1.2324,-0.0250,-0.1150,1.2080,-2.5800,14.5190,-43.7560,32.4800
1.2449,0.0130,-0.1410,1.2750,1.3280,12.6260,-41.8930,32.4400
1.2569,0.0450,-0.1580,1.2780,7.7250,14.9620,-40.7020,32.2900
1.2643,0.0250,-0.1410,1.2110,9.3590,18.4580,-39.6790,32.4400
1.2764,0.0000,-0.0970,1.1730,5.4500,18.4430,-38.3210,32.3400
1.2835,0.0500,-0.0740,1.1390,6.3820,12.2140,-37.5730,32.3900
1.2958,0.0620,-0.0500,1.1380,3.8780,10.5500,-36.7790,32.3400
1.3027,0.0900,-0.0720,1.1250,1.5570,7.5730,-37.6030,32.3900
1.3153,0.1170,-0.0560,1.1120,-2.8090,16.4580,-37.9080,32.4400
1.3275,0.1430,-0.0860,1.1780,1.0840,9.4500,-39.8630,32.4800
1.3344,0.1470,-0.0800,1.1370,0.7180,12.6410,-42.2900,32.3900
1.3468,0.1220,-0.0860,1.1880,4.3210,17.1150,-44.8550,32.3400
1.3540,0.1080,-0.1160,1.1910,8.8090,14.8090,-47.9080,32.3900
1.3663,0.0820,-0.1270,1.1610,9.1760,14.9470,-49.9390,32.4400
1.3735,0.0400,-0.1160,1.1650,8.0460,12.8090,-50.6720,32.3900
1.3856,0.0180,-0.1080,1.1360,6.8850,12.1220,-48.9310,32.4400
1.3927,0.0260,-0.0990,1.1270,4.1830,11.5570,-45.9240,32.3900
1.4050,0.0590,-0.0970,1.1540,2.0610,15.8630,-42.8240,32.3900
1.4172,0.0660,-0.0940,1.1720,2.0920,19.7860,-39.7860,32.3400
1.4244,0.0720,-0.0840,1.1670,2.0460,22.7020,-37.6490,32.3900
1.4365,0.0920,-0.0820,1.1720,4.6410,23.1600,-36.3210,32.3400
1.4438,0.1140,-0.0570,1.1860,2.5800,22.2290,-37.6950,32.2900
1.4559,0.1540,-0.0800,1.1720,5.6030,25.1450,-40.5340,32.4400
1.4627,0.1350,-0.0840,1.1660,6.1070,21.7560,-44.4890,32.2900
1.4754,0.1230,-0.0800,1.1450,5.2670,18.0610,-47.9850,32.3900
1.4875,0.1090,-0.0660,1.1730,5.6340,14.9470,-50.6260,32.3400
1.4945,0.0980,-0.0620,1.1780,6.3510,15.5880,-50.7790,32.3900
1.5068,0.0840,-0.0650,1.1750,5.6340,18.6870,-49.0840,32.4400
1.5140,0.1180,-0.0780,1.1650,3.1300,21.2060,-48.3050,32.3900
1.5264,0.1160,-0.0870,1.1990,1.9240,21.7560,-49.0840,32.4400
1.5334,0.1210,-0.1090,1.2300,2.2750,22.5800,-49.5730,32.4800
1.5455,0.1120,-0.1020,1.2440,4.1070,22.6410,-51.2520,32.3400
1.5527,0.0880,-0.1000,1.2090,4.0920,22.3970,-52.1980,32.4400
1.5650,0.0630,-0.0780,1.1810,1.7400,21.5270,-52.3660,32.3900
1.5772,0.0440,-0.0520,1.1730,0.1070,18.1370,-51.9080,32.4400
1.5844,0.0130,-0.0640,1.1480,-0.2440,15.6180,-50.9620,32.3900
1.5965,0.0770,-0.0210,1.1180,-4.1530,14.9920,-49.4500,32.4400
1.6035,0.0660,-0.0330,1.1180,-9.0690,15.4050,-48.5500,32.3900
1.6156,0.0810,-0.0320,1.1630,-10.5040,13.7100,-48.2600,32.4400
1.6228,0.1190,-0.0600,1.2620,-4.5190,14.2290,-49.9080,32.4400
1.6349,0.1030,-0.0850,1.2810,4.3970,20.7790,-50.7330,32.3900
1.6471,0.0830,-0.0950,1.2620,7.9080,26.6410,-50.1220,32.3400
1.6542,0.0720,-0.0870,1.2550,11.2060,28.0150,-50.7630,32.2900
1.6663,0.0250,-0.0660,1.1790,13.5880,23.2820,-51.4660,32.4400
1.6735,0.0190,-0.0430,1.1390,11.1150,14.6720,-52.3050,32.2900
1.6857,0.0250,-0.0280,1.1380,8.4890,9.8780,-53.1300,32.4400
1.6927,0.0310,-0.0180,1.1310,5.3590,7.7710,-52.8240,32.4400
1.7052,0.0290,-0.0180,1.1110,2.0920,9.7100,-51.7400,32.3900
1.7172,0.0210,-0.0390,1.1330,0.6410,8.9160,-51.5880,32.3400
1.7246,0.0270,-0.0790,1.1780,1.7560,9.8780,-51.3130,32.3900
1.7369,0.0500,-0.1110,1.2390,6.4270,14.4580,-50.9470,32.4400
1.7440,-0.0240,-0.1080,1.2280,7.1300,18.1070,-50.3970,32.3900
1.7561,-0.0110,-0.0950,1.1850,5.9690,18.6720,-48.0460,32.3400
1.7632,-0.0360,-0.0990,1.2220,5.9390,14.7480,-45.0840,32.3900
1.7754,-0.0260,-0.0820,1.2060,7.0530,11.4200,-41.9690,32.3900
1.7875,0.0040,-0.0720,1.1690,5.7560,12.3050,-38.1370,32.4400
1.7947,0.0630,-0.0510,1.1920,5.6340,9.6340,-35.8630,32.4400
1.8070,0.1140,-0.0200,1.2260,3.6030,10.8550,-36.9010,32.3400
1.8143,0.1320,-0.0200,1.1810,6.0460,13.4810,-39.4810,32.3900
1.8263,0.0890,-0.0140,1.1690,6.0150,12.2290,-41.4050,32.4400
1.8335,0.1140,-0.0390,1.2200,10.1220,7.6790,-44.5800,32.3900
1.8455,0.1490,-0.0550,1.2420,15.3130,10.9310,-49.0530,32.3400
1.8528,0.0960,-0.0620,1.1870,17.4200,8.6260,-52.2600,32.4400
1.8649,0.0550,-0.0470,1.1720,14.5190,11.4500,-52.0610,32.3400
1.8770,0.0200,-0.0430,1.1780,14.1530,8.7790,-49.6490,32.3400
1.8842,0.0320,-0.0220,1.1430,12.7630,9.7250,-45.2980,32.3900
1.8966,0.0360,-0.0430,1.1400,11.6030,9.8170,-40.9920,32.3400
1.9038,0.1150,-0.0200,1.1910,10.4430,12.8850,-37.7710,32.3900
1.9159,0.1520,-0.0350,1.1920,11.8630,21.3440,-35.8630,32.4400
1.9228,0.1700,-0.0310,1.2190,13.6640,21.3280,-36.6720,32.4400
1.9350,0.1900,-0.0270,1.1820,15.0530,21.2980,-40.8550,32.4400
1.9473,0.1980,-0.0040,1.1620,15.9690,18.0920,-46.5800,32.4400
1.9542,0.2000,0.0160,1.1510,15.2520,14.9010,-52.2600,32.3900
1.9663,0.1460,0.0200,1.1240,13.8930,12.2290,-55.8470,32.4400
1.9735,0.1000,0.0300,1.1250,10.0310,12.8700,-55.7710,32.3900
1.9858,0.0710,0.0220,1.1100,10.5190,8.2440,-53.7710,32.3400
1.9927,0.0650,0.0080,1.1440,8.6560,11.4350,-49.6030,32.4800
2.0053,0.0820,0.0010,1.1650,9.3440,19.8470,-45.7710,32.3400
2.0174,0.0660,-0.0040,1.1420,9.5570,23.0690,-42.0000,32.3400
2.0244,0.0800,0.0000,1.1710,8.5800,19.6950,-39.6950,32.4800
2.0370,0.1210,-0.0090,1.1840,8.7790,22.4890,-38.3820,32.3400
2.0442,0.1500,-0.0120,1.2130,10.9160,26.0310,-39.0080,32.3900
2.0563,0.1260,-0.0040,1.2010,13.1150,27.2520,-40.6560,32.2500
2.0632,0.1130,0.0100,1.1390,11.4350,25.2370,-41.0080,32.3900
2.0755,0.1370,0.0100,1.1400,10.5800,20.6110,-43.4350,32.4400
2.0828,0.1570,0.0040,1.1010,11.5730,17.0840,-47.4660,32.3400
2.0950,0.1480,-0.0120,1.0780,9.1450,14.4730,-51.6490,32.3900
2.1073,0.1500,-0.0210,1.1090,8.0150,12.6870,-54.1830,32.4400
2.1144,0.1510,-0.0260,1.1640,9.4500,16.0150,-55.3440,32.2900
2.1266,0.0930,0.0070,1.1340,10.1980,19.1600,-53.6790,32.4400
2.1336,0.0380,0.0460,1.1200,8.5340,24.8550,-49.0690,32.3900
2.1461,-0.0110,0.0670,1.1180,8.2600,24.1370,-43.3440,32.3400
2.1532,0.0110,0.0820,1.1040,7.2820,21.0690,-38.5950,32.4400
2.1654,0.0470,0.0940,1.0930,4.8400,22.5650,-36.6870,32.3900
2.1729,0.0610,0.0910,1.1100,2.4270,20.1070,-36.3820,32.3400
2.1849,0.1040,0.0750,1.1500,2.7940,17.5570,-37.8170,32.4800
2.1974,0.1290,0.0660,1.1670,5.7560,18.9770,-40.0000,32.3400
2.2044,0.1230,0.0690,1.1220,5.0380,17.1300,-42.3210,32.3900
2.2167,0.0930,0.0740,1.1040,2.8400,13.9850,-43.5270,32.3400
2.2240,0.0860,0.0750,1.0910,-0.0310,8.5040,-42.8400,32.3400
2.2363,0.1490,0.0670,1.1350,-2.2750,7.2980,-42.4890,32.3900
2.2435,0.1870,0.0610,1.1800,-0.6870,8.7330,-44.1070,32.3400
2.2557,0.1840,0.0670,1.1600,-1.5420,12.9920,-45.1760,32.3900
2.2628,0.1550,0.0790,1.1660,-2.6870,13.5570,-45.5270,32.4400
2.2750,0.1470,0.0590,1.2130,-0.5650,9.6790,-45.6950,32.2900
2.2875,0.1580,0.0500,1.2160,2.3970,14.9920,-45.3130,32.4400
2.2946,0.1320,0.0660,1.1710,2.3510,15.9080,-44.7020,32.3900
2.3070,0.1200,0.0730,1.1640,0.2290,16.0920,-42.8700,32.2900
2.3143,0.1420,0.0710,1.1710,0.6260,15.4200,-41.9080,32.4400
2.3266,0.1600,0.0730,1.1670,-0.1680,15.8780,-42.0310,32.3900
2.3337,0.1830,0.0610,1.1720,-1.6030,15.0380,-42.7480,32.4400
2.3458,0.1790,0.0520,1.1800,-1.5570,15.5730,-44.3660,32.2900
2.3530,0.1920,0.0460,1.1900,-1.4200,16.0610,-46.2290,32.3400
2.3654,0.1750,0.0420,1.1820,-0.9770,15.1760,-47.5420,32.3900
2.3775,0.1530,0.0380,1.1860,-0.9920,15.1760,-47.2520,32.3400
2.3845,0.1580,0.0240,1.2080,2.5650,14.7480,-46.4430,32.4400
2.3972,0.1330,0.0470,1.2190,2.4730,13.7560,-45.6640,32.3900
2.4042,0.1520,0.0560,1.1690,3.2370,17.9080,-45.5270,32.3400
2.4166,0.1680,0.0510,1.1970,2.3820,18.4430,-46.1680,32.2900
2.4237,0.1640,0.0450,1.1880,3.1910,18.7020,-47.3280,32.3400
2.4361,0.1450,0.0640,1.1470,2.8550,18.2750,-47.6640,32.3900
2.4434,0.1540,0.0690,1.1280,-0.6260,17.8470,-47.9390,32.3400
2.4554,0.1260,0.0690,1.1540,-2.2290,17.4810,-48.1830,32.4800
2.4613,0.1160,0.0550,1.1680,-1.4200,16.7020,-47.7100,32.3900
2.4747,0.1160,0.0290,1.1770,-2.3360,15.8470,-47.5880,32.3400
2.4870,0.1470,0.0040,1.2430,0.9010,14.9920,-48.7330,32.3900
2.4942,0.1150,-0.0020,1.2490,5.2060,18.7330,-48.6560,32.4400
2.5066,0.0660,0.0100,1.2000,4.9470,18.5040,-46.3210,32.2900
2.5138,0.0910,0.0300,1.1920,3.4810,15.0840,-43.9240,32.3400
2.5260,0.1440,0.0310,1.2170,5.2520,15.1760,-43.5730,32.2900
2.5332,0.1620,0.0610,1.1760,5.6950,16.0760,-44.1370,32.4400
2.5456,0.1580,0.0740,1.1390,3.5420,18.8850,-43.8780,32.3900
2.5527,0.1490,0.0740,1.1240,2.1220,20.7940,-43.6790,32.4800
2.5652,0.1530,0.0620,1.1170,1.4350,18.0460,-45.0530,32.3400
2.5773,0.1700,0.0300,1.1720,2.2140,13.6790,-47.6490,32.3900
2.5844,0.1860,-0.0090,1.2220,3.2520,17.9390,-50.1680,32.3400
2.5966,0.1580,0.0100,1.2380,5.3890,17.7400,-52.9620,32.3900
2.6036,0.1150,0.0100,1.2210,6.6110,17.4660,-54.5190,32.3400
2.6161,0.0590,0.0210,1.2270,9.9240,11.6490,-52.7940,32.3900
2.6230,0.0510,0.0420,1.1590,8.1680,13.7250,-47.7710,32.3400
2.6356,0.0800,0.0600,1.1660,4.6870,13.8020,-42.7180,32.4400
2.6424,0.1170,0.0560,1.2150,6.8400,18.3050,-39.2670,32.3400
2.6551,0.1320,0.0580,1.1890,7.5110,23.8020,-36.5190,32.3400
2.6606,0.1530,0.0750,1.1680,6.4580,24.1830,-34.8090,32.3900
2.6746,0.1930,0.0930,1.1620,6.0310,23.4960,-36.3050,32.4400
2.6872,0.2150,0.0960,1.1590,5.1300,19.1150,-40.6870,32.3900
2.6941,0.2210,0.1080,1.1770,2.2600,19.7860,-45.0530,32.4400
2.7066,0.2310,0.0930,1.1820,7.1910,13.4810,-48.7180,32.3900
2.7136,0.2160,0.0950,1.1680,8.1830,18.5340,-50.2440,32.4400
2.7261,0.1610,0.0860,1.1100,5.8630,18.5340,-48.7020,32.3400
2.7330,0.1640,0.0840,1.1650,5.1450,18.0920,-46.5650,32.3900
2.7457,0.1880,0.0890,1.2040,8.9160,20.8850,-44.9770,32.3400
2.7527,0.2110,0.1070,1.1550,9.7100,30.4120,-43.8320,32.3900
2.7652,0.1650,0.1150,1.1000,6.1980,32.5650,-44.0000,32.3400
2.7775,0.1630,0.1160,1.0970,4.4270,30.7020,-45.7860,32.3900
2.7847,0.1870,0.0960,1.1170,3.9080,24.2600,-50.7790,32.3400
2.7972,0.1580,0.0910,1.1460,4.0310,18.5190,-56.5340,32.3900
2.8046,0.1270,0.0910,1.1430,4.6410,14.7330,-60.0610,32.3900
2.8165,0.0950,0.1020,1.1340,3.1150,14.5800,-58.2600,32.3400
2.8240,0.1110,0.1040,1.1460,2.5950,14.8700,-55.6490,32.3900
2.8361,0.1030,0.0750,1.1970,4.5500,13.8630,-52.0000,32.3400
2.8435,0.1200,0.0660,1.1890,5.8020,20.1070,-47.4200,32.3900
2.8557,0.1150,0.0700,1.1720,4.8700,27.6490,-43.6340,32.3400
2.8630,0.0800,0.0690,1.1800,3.0080,29.2520,-39.3130,32.3900
2.8751,0.0840,0.0830,1.1900,4.0610,28.9010,-36.6260,32.4400
2.8875,0.1040,0.0930,1.1610,4.0920,27.0230,-35.2670,32.3400
2.8947,0.1200,0.0850,1.1850,3.8020,23.9540,-35.9540,32.3900
2.9070,0.1610,0.0800,1.2070,6.0460,21.3740,-38.2900,32.3400
2.9142,0.1730,0.0850,1.1870,5.7710,22.9010,-40.2140,32.3900
2.9266,0.1410,0.1090,1.1660,4.5950,21.6640,-41.1150,32.4400
2.9337,0.1330,0.1320,1.1600,2.5650,21.1300,-40.5650,32.4800
2.9461,0.1280,0.1460,1.1400,-0.0310,21.3130,-39.6950,32.3400
2.9533,0.1400,0.1480,1.1510,-3.4050,18.8400,-38.4430,32.3900
2.9654,0.1860,0.1350,1.2190,-2.5190,20.5500,-38.0150,32.4800
2.9712,0.1580,0.1120,1.2310,2.1220,29.0530,-37.8930,32.3400
2.9848,0.1100,0.0940,1.2220,2.8550,28.8700,-36.3210,32.3900
2.9971,0.1340,0.1000,1.2360,3.5880,27.9540,-34.9920,32.3400
3.0044,0.1100,0.1020,1.2530,6.7790,25.4660,-34.0920,32.3900
3.0168,0.1290,0.1150,1.2240,8.9770,25.0380,-32.5040,32.5300
3.0237,0.1550,0.1400,1.2000,9.2060,21.8780,-34.7180,32.3900
3.0363,0.1650,0.1600,1.1670,8.7020,19.2520,-38.1980,32.4400
3.0434,0.1870,0.1620,1.1940,9.6790,16.1370,-42.3820,32.3400
3.0557,0.1650,0.1570,1.1580,9.4050,12.4430,-45.3130,32.4800
3.0630,0.1340,0.1760,1.1400,7.3440,6.6410,-46.1530,32.3400
3.0753,0.1570,0.1760,1.1300,6.6870,8.1220,-45.4350,32.4800
3.0828,0.1410,0.1720,1.1210,5.6640,12.5040,-44.0150,32.3400
3.0949,0.1800,0.1570,1.1580,4.7180,14.6260,-43.7560,32.2900
3.1073,0.1880,0.1470,1.1960,7.8170,17.7560,-44.9310,32.3400
3.1145,0.1610,0.1540,1.1410,7.1600,17.1600,-46.6720,32.4800
3.1268,0.1330,0.1670,1.1270,5.4050,13.1150,-47.4050,32.3900
3.1340,0.1670,0.1590,1.0940,2.4730,11.1150,-47.2210,32.4400
3.1463,0.1890,0.1340,1.1560,2.1370,10.9010,-48.0460,32.4400
3.1534,0.1810,0.1100,1.1900,6.1070,11.3440,-49.0840,32.3400
3.1658,0.1440,0.1110,1.1560,5.4200,17.3740,-47.4500,32.2900
3.1730,0.1280,0.1350,1.1380,2.9620,16.8850,-45.2980,32.3400
3.1854,0.1410,0.1380,1.1350,3.0380,16.7940,-44.7180,32.3900
3.1911,0.1570,0.1350,1.1230,1.3740,15.4960,-45.0840,32.4400
3.2049,0.1620,0.1270,1.1240,-0.4580,15.2980,-45.7710,32.3400
3.2170,0.1590,0.1290,1.1280,-1.3130,16.3050,-45.8320,32.3400
3.2241,0.1790,0.1340,1.1260,-2.2750,14.9470,-46.9010,32.4400
3.2366,0.1940,0.1360,1.1780,-1.2820,9.1600,-48.6560,32.3900
3.2438,0.1910,0.1330,1.2140,2.8090,9.9850,-49.0690,32.4400
3.2560,0.1880,0.1290,1.2230,7.0230,15.0230,-47.1910,32.3900
3.2632,0.1690,0.1400,1.1830,9.2520,21.4200,-43.8630,32.3400
3.2756,0.1440,0.1580,1.1230,8.3660,22.7940,-40.3210,32.3400
3.2827,0.1520,0.1690,1.1090,6.5650,20.5800,-36.6870,32.3400
3.2951,0.2070,0.1770,1.1060,5.5270,23.5110,-35.0840,32.4400
3.3075,0.2140,0.1850,1.0640,3.0080,26.7630,-34.1530,32.2900
3.3147,0.2270,0.2020,1.0620,-1.3130,28.9310,-34.0460,32.4400
3.3268,0.2470,0.1970,1.0990,-2.7180,28.9770,-35.7400,32.2900
3.3339,0.2340,0.1880,1.1080,-4.4890,28.4270,-37.4660,32.3400
3.3462,0.2300,0.1770,1.1490,-4.0920,25.8630,-39.2520,32.4400
3.3535,0.2840,0.1300,1.2320,1.5730,29.0990,-42.6560,32.3400
3.3656,0.3010,0.1090,1.2140,6.5800,31.2060,-48.4270,32.4400
3.3730,0.2830,0.0990,1.1700,6.6720,34.3820,-54.8090,32.2900
3.3851,0.1540,0.1110,1.1690,6.5950,21.7100,-58.4580,32.4400
3.3975,0.1610,0.1420,1.1450,4.8400,21.1300,-57.4810,32.4800
3.4046,0.1450,0.1540,1.1410,1.7860,21.6340,-55.8020,32.4400
3.4170,0.1290,0.1590,1.1540,1.2370,23.2210,-52.8400,32.3900
3.4242,0.1150,0.1660,1.1570,1.1450,26.7790,-49.7250,32.3400
3.4366,0.0970,0.1710,1.1990,2.7480,21.2210,-47.6030,32.3400
3.4438,0.1380,0.1770,1.1530,3.9850,24.6110,-45.7560,32.4800
3.4561,0.1370,0.1920,1.1760,3.2820,27.2520,-44.1220,32.3400
3.4632,0.1640,0.1940,1.1630,4.5800,29.2210,-43.4350,32.3900
3.4754,0.1830,0.1850,1.1540,4.5190,28.2440,-45.0230,32.4400
3.4826,0.1910,0.1880,1.1550,4.2750,24.2750,-49.9850,32.3900
3.4951,0.1720,0.1770,1.1420,4.6410,20.2140,-54.8240,32.3400
3.5075,0.1520,0.1690,1.1360,4.0150,14.5950,-59.6030,32.3400
3.5148,0.1030,0.1530,1.1180,1.4200,9.8320,-62.1530,32.3900
3.5270,0.0610,0.1590,1.1240,-0.8700,8.7630,-61.5420,32.4400
3.5341,0.0330,0.1530,1.1440,-0.8550,7.1910,-58.4430,32.3900
3.5466,0.0420,0.1530,1.1580,0.2440,9.3280,-53.6030,32.4400
3.5540,0.0660,0.1540,1.1230,-0.2900,14.1830,-48.9920,32.3900
3.5660,0.0760,0.1850,1.1040,-2.3970,17.4500,-45.0380,32.4400
3.5733,0.0770,0.2070,1.1090,-4.1070,15.8020,-41.8320,32.4800
3.5853,0.1130,0.2060,1.1180,-4.6410,14.5040,-39.7710,32.3400
3.5913,0.1390,0.2000,1.1600,-3.6790,14.6870,-39.3740,32.3900
3.6050,0.1730,0.1800,1.2120,0.8550,13.7710,-40.6560,32.3900
3.6170,0.1720,0.1770,1.1810,4.0610,15.9690,-41.9540,32.3400
3.6244,0.1630,0.1810,1.1530,2.7180,14.1680,-42.0460,32.3900
3.6366,0.2000,0.2060,1.1360,2.0460,11.0080,-42.1830,32.3400
3.6440,0.2200,0.2200,1.1150,0.9920,12.9160,-41.9850,32.2900
3.6562,0.2300,0.2400,1.0880,-1.4350,14.4890,-42.6260,32.2500
3.6631,0.2230,0.2380,1.0930,-3.8020,16.9620,-43.0230,32.3900
3.6756,0.2360,0.2130,1.1140,-2.7940,18.6870,-43.9390,32.4400
3.6828,0.2620,0.1960,1.0860,-2.9470,23.0230,-46.0310,32.2900
3.6949,0.2460,0.1790,1.0960,-3.9690,26.3360,-49.0530,32.4400
3.7070,0.2020,0.1760,1.0980,-5.0690,26.7630,-51.0380,32.3400
3.7143,0.1610,0.1700,1.1220,-5.4200,24.5190,-50.7630,32.3400
3.7266,0.1630,0.1430,1.2100,-0.2900,24.0000,-50.0610,32.2500
3.7336,0.1460,0.1500,1.1400,1.2370,32.5500,-47.8170,32.3900
3.7458,0.1060,0.1640,1.1000,-1.1760,31.6790,-46.2440,32.4400
3.7530,0.1230,0.1700,1.0930,-2.1680,26.1680,-44.2750,32.3900
3.7654,0.1520,0.1750,1.1010,-3.5420,24.1830,-43.6950,32.4400
3.7776,0.1910,0.1780,1.0740,-5.1150,23.5730,-44.2750,32.2900
3.7846,0.2230,0.1680,1.0720,-9.1600,28.2290,-46.3050,32.4400
3.7968,0.2300,0.1640,1.0750,-11.5110,30.2750,-50.7790,32.3400
3.8040,0.1560,0.1670,1.0450,-14.8700,28.5800,-54.8240,32.3900
3.8160,0.1230,0.1820,1.0130,-20.9770,24.0760,-55.9540,32.3400
3.8233,0.1250,0.1780,1.0780,-24.8400,21.0080,-56.1980,32.3900
3.8354,0.1110,0.1470,1.1730,-21.2670,16.5800,-56.3970,32.3400
3.8475,0.1160,0.1240,1.1750,-17.8320,21.7710,-53.7710,32.3900
3.8544,0.0870,0.0940,1.2260,-13.1300,24.9770,-50.3360,32.4400
3.8666,0.1080,0.0620,1.2840,-2.0610,29.5110,-47.2670,32.4800
3.8737,0.0780,0.0810,1.2550,3.9850,34.8400,-42.8700,32.2900
3.8861,0.0860,0.1080,1.2040,6.9920,31.9240,-39.9690,32.3400
3.8933,0.1190,0.1280,1.1310,8.6110,31.2210,-40.0150,32.4800
3.9057,0.0980,0.1580,1.0810,6.8090,24.8700,-41.1450,32.3400
3.9127,0.1470,0.1800,1.0330,3.2210,20.1830,-43.1760,32.3900
3.9251,0.1810,0.1910,1.0370,-1.0080,17.7100,-46.8090,32.3400
3.9372,0.1840,0.1980,1.0780,-2.8400,15.9540,-49.6950,32.3900
3.9444,0.1730,0.1830,1.0850,-4.7020,18.2290,-51.6790,32.3900
3.9568,0.1400,0.1680,1.1170,-5.6490,15.8320,-51.6490,32.3400
3.9641,0.1330,0.1490,1.1560,-3.6180,17.8470,-49.9690,32.3900
3.9761,0.1260,0.1430,1.1620,-1.4810,21.8780,-47.8630,32.3400
3.9832,0.1460,0.1270,1.1760,2.4730,24.4730,-47.1150,32.2900
3.9954,0.1430,0.1170,1.1390,3.0690,26.5040,-48.4430,32.3400
