Time,AX,AY,AZ,GX,GY,GZ,T
0.0000,0.1300,0.1860,1.0670,0.4120,24.1370,-41.6790,32.4400
0.0005,0.1410,0.1970,1.0790,-1.9080,18.3970,-41.3280,32.3900
0.0009,0.1670,0.1890,1.1100,-2.2900,17.8320,-41.9690,32.3900
0.0013,0.1550,0.1710,1.1450,-0.7630,16.0460,-43.2520,32.4400
0.0017,0.1620,0.1400,1.1430,0.4890,18.5040,-43.7560,32.3900
0.0021,0.1450,0.1480,1.1070,-0.1530,21.1450,-43.1450,32.3400
0.0025,0.1410,0.1450,1.0870,-0.8240,21.2820,-43.2670,32.3900
0.0029,0.1450,0.1390,1.0720,-1.8320,21.5730,-43.1150,32.3400
0.0033,0.1440,0.1420,1.0560,-2.5650,21.4500,-43.0530,32.3900
0.0038,0.1430,0.1270,1.0620,-2.1830,26.1220,-42.9470,32.4400
0.0048,0.1350,0.1290,1.0350,-2.5800,27.1300,-43.0380,32.4400
0.0053,0.1010,0.1300,1.0260,-3.0230,27.6950,-43.3440,32.3900
0.0057,0.0790,0.1200,1.0060,-3.1150,24.6110,-42.8850,32.3400
0.0062,0.0570,0.1330,0.9830,-4.6870,22.0760,-40.8850,32.2900
0.0066,0.0770,0.1500,0.9640,-6.7940,19.8930,-39.2820,32.4400
0.0069,0.1050,0.1580,0.9440,-8.4120,16.6260,-38.9310,32.3900
0.0073,0.0890,0.1610,0.9450,-11.1910,15.3890,-38.5800,32.4400
0.0077,0.1040,0.1480,1.0170,-10.3510,9.5420,-38.4890,32.4400
0.0080,0.1520,0.1110,1.0560,-4.8090,12.4120,-38.4580,32.3900
0.0084,0.1700,0.0670,1.0460,-1.6490,19.0230,-37.6030,32.4400
0.0088,0.2120,0.0550,1.0140,-1.9690,17.3890,-39.8320,32.2900
0.0091,0.2780,0.0840,1.0730,-0.5800,17.2520,-44.0000,32.3400
0.0095,0.2510,0.0980,1.0650,2.8550,20.6410,-48.4730,32.4800
0.0098,0.1850,0.1220,1.0150,0.3970,22.3970,-49.0530,32.4400
0.0102,0.1640,0.1270,1.0000,-2.7020,21.3130,-48.9310,32.3900
0.0105,0.1590,0.1160,1.0350,-2.9470,19.5880,-49.7860,32.3400
0.0109,0.1490,0.0870,1.0870,1.9390,18.0920,-51.4200,32.4400
0.0112,0.1210,0.0850,1.0760,4.1980,20.9160,-51.9540,32.3400
0.0115,0.0730,0.0990,1.0490,4.2140,22.0460,-52.3970,32.3400
0.0118,0.0550,0.1090,0.9990,3.2670,18.5190,-52.0150,32.3900
0.0121,0.0600,0.1150,0.9650,-1.1300,11.9080,-50.6560,32.3400
0.0126,0.0970,0.1030,0.9990,-3.5570,6.9310,-49.2060,32.3900
0.0132,0.1900,0.1110,1.0580,-3.2820,11.1150,-49.5270,32.4400
0.0135,0.1980,0.1390,1.0860,-3.1760,16.7940,-49.9690,32.4800
0.0139,0.1770,0.1410,1.0860,-2.4890,22.7330,-50.3820,32.3400
0.0144,0.1340,0.1560,1.0530,-3.6180,26.2440,-49.5730,32.4400
0.0149,0.1130,0.1750,1.0340,-4.4890,22.9310,-50.4270,32.3900
0.0153,0.1170,0.1990,0.9870,-6.8850,18.6560,-50.7630,32.4400
0.0156,0.1020,0.2020,0.9370,-10.6560,17.1910,-49.1910,32.2900
0.0160,0.1210,0.1950,0.9130,-15.4500,13.0840,-46.1980,32.4400
0.0165,0.1850,0.1790,0.9950,-17.9390,12.6870,-44.3660,32.3900
0.0169,0.1770,0.1840,1.0370,-19.4960,19.9690,-42.6110,32.4400
0.0172,0.1310,0.2090,1.0970,-19.4960,20.7630,-39.9240,32.3900
0.0175,0.1090,0.1990,1.0860,-17.2370,29.5880,-36.3660,32.3900
0.0178,0.0680,0.1920,1.1110,-14.9920,18.6720,-35.2820,32.4400
0.0182,0.1270,0.1370,1.1880,-9.0840,13.8320,-33.0840,32.4800
0.0185,0.2110,0.1030,1.2660,-1.2670,12.8550,-33.6790,32.4400
0.0188,0.2840,0.1260,1.1870,2.5500,18.9620,-38.3360,32.4800
0.0191,0.2720,0.1820,1.0890,-1.2820,23.5880,-45.3740,32.3400
0.0196,0.2110,0.2400,1.0380,-7.5880,19.9240,-50.9770,32.4800
0.0203,0.1670,0.2400,1.0030,-14.2140,14.1220,-55.1150,32.3400
0.0208,0.1410,0.2120,1.0040,-21.1760,1.2820,-58.9920,32.4400
0.0211,0.1560,0.1500,1.0500,-24.8850,-9.3590,-60.9160,32.3900
0.0214,0.2070,0.0610,1.2050,-20.8700,-14.1370,-62.0920,32.4400
0.0218,0.2270,0.0300,1.2330,-13.7250,-1.2670,-60.9160,32.3900
0.0221,0.2210,0.0500,1.1650,-13.9850,9.6950,-56.9470,32.4400
0.0224,0.2740,0.1000,1.1010,-17.6340,19.1760,-56.0760,32.3900
0.0227,0.2500,0.1420,1.1450,-19.3280,15.3890,-58.6110,32.4400
0.0229,0.2060,0.1650,1.1420,-19.5110,16.0460,-61.1600,32.3900
0.0232,0.1420,0.1930,1.1040,-21.1300,11.7400,-63.1910,32.4400
0.0235,0.1090,0.1890,1.0790,-22.7180,3.6790,-64.0460,32.3400
0.0238,0.1570,0.1780,1.0610,-28.4730,7.3130,-61.9390,32.3900
0.0241,0.1040,0.1760,1.1500,-25.7400,-2.3050,-58.2290,32.3400
0.0244,0.2110,0.1600,1.1770,-26.3660,11.2670,-56.9160,32.3900
0.0247,0.1880,0.1230,1.2230,-29.6490,-2.4430,-56.0920,32.4400
0.0249,0.2500,0.1300,1.2200,-31.3280,-6.7180,-58.0310,32.3900
0.0252,0.3340,0.1100,1.2530,-28.4580,-7.5880,-65.2520,32.4400
0.0255,0.1210,0.1940,1.4090,-22.8240,-22.3970,-65.6180,32.4400
0.0258,0.4060,0.0750,1.0300,-13.6640,7.1760,-71.2980,32.3900
0.0261,0.2800,0.1170,1.0120,-30.8090,26.3820,-71.4050,32.4400
0.0263,0.2280,0.1040,1.1330,-35.2370,8.4120,-71.8930,32.3900
0.0266,0.2540,0.0810,1.2300,-33.4810,9.6490,-72.3970,32.4400
0.0269,0.2290,0.0720,1.2530,-32.3210,0.2600,-74.1680,32.3900
0.0272,0.1740,0.0700,1.2690,-29.2370,-0.0610,-74.2440,32.4400
0.0274,0.1260,0.0770,1.2500,-24.9920,-0.8700,-69.5730,32.3900
0.0277,0.1620,0.0960,1.1620,-24.8090,2.3210,-62.1980,32.2900
0.0280,0.2240,0.1210,1.1460,-29.3590,5.3590,-58.0610,32.3400
0.0283,0.2630,0.1010,1.2000,-30.4120,13.4810,-54.5800,32.4400
0.0285,0.2690,0.1060,1.2160,-30.9620,25.7560,-50.5340,32.4400
0.0288,0.2860,0.1100,1.1990,-33.1150,30.7630,-49.1760,32.2900
0.0290,0.2720,0.0970,1.2690,-30.4730,36.5950,-49.4960,32.4400
0.0295,0.2750,0.1130,1.3790,-22.8090,40.9470,-50.1070,32.3900
0.0297,0.2260,0.1000,1.3130,-2.9470,24.1370,-51.8630,32.2900
0.0300,0.1370,0.1190,1.1790,-3.2520,31.2980,-47.4810,32.4400
0.0302,0.2190,0.1010,1.0510,-11.8170,9.3590,-44.5650,32.4400
0.0305,0.2350,0.0850,1.1050,-20.7020,6.3970,-44.0460,32.4400
0.0307,0.2410,0.0430,1.1470,-21.6950,-2.8700,-46.3360,32.3900
0.0310,0.2480,0.0410,1.1530,-23.5730,-7.9240,-50.0000,32.4400
0.0312,0.2230,0.0530,1.2030,-24.7330,4.3820,-52.2440,32.2900
0.0314,0.1780,0.0420,1.1960,-22.7940,1.9240,-54.2750,32.3900
0.0317,0.1820,0.0350,1.1320,-26.2900,1.6950,-57.5880,32.4400
0.0319,0.1870,0.0870,1.0990,-32.1980,9.0230,-60.7630,32.3400
0.0322,0.0710,0.0230,1.1540,-27.4200,-19.0840,-62.5500,32.5300
0.0324,0.0580,0.1030,1.0960,-40.6260,8.3970,-53.6180,32.2900
0.0327,0.0350,0.0070,1.1540,-48.3660,0.3660,-47.5110,32.4400
0.0329,0.1020,-0.0490,1.2770,-41.6030,-10.0920,-43.1150,32.3900
0.0332,0.1380,-0.0720,1.2690,-38.6870,1.5880,-39.9690,32.5300
0.0334,0.1440,-0.0750,1.1890,-39.6640,12.6260,-35.6490,32.3400
0.0337,0.1770,-0.0760,1.1660,-44.7020,13.0080,-33.4050,32.5300
0.0339,0.2900,-0.1010,1.2460,-46.4580,18.7330,-35.9390,32.3400
0.0342,0.3370,-0.1150,1.2810,-39.4660,15.9390,-42.4270,32.4800
0.0344,0.3620,-0.0950,1.3200,-35.6790,21.0080,-48.3820,32.4400
0.0346,0.1400,-0.0120,1.5030,-30.9620,-3.5110,-47.3740,32.3900
0.0348,0.3590,-0.0270,1.2970,-30.4730,29.7250,-48.1370,32.4400
0.0350,0.3900,-0.1120,1.2240,-29.4050,29.7400,-55.5880,32.4800
0.0353,0.2360,-0.1120,1.3720,-29.9850,10.8240,-55.2980,32.4400
0.0355,0.2740,-0.0690,1.3890,-44.2750,-13.6340,-54.4120,32.4400
0.0357,0.3150,-0.1130,1.1280,-35.0990,-13.7860,-54.8240,32.3900
0.0359,0.4180,-0.1340,1.2510,-23.7560,21.6030,-52.1070,32.4400
0.0362,0.2930,-0.1720,1.4080,-21.5110,-0.6720,-53.8020,32.3900
0.0364,0.3790,-0.1830,1.3430,-10.0150,-8.1980,-58.9920,32.4400
0.0366,0.3380,-0.1750,1.2200,-6.6870,12.2440,-58.2900,32.3900
0.0368,0.3360,-0.0630,1.1520,-13.3440,14.3510,-58.3510,32.4400
0.0370,0.3350,-0.0790,1.2440,-13.6950,11.6640,-59.4810,32.4400
0.0373,0.2970,-0.1910,1.2850,-5.2520,17.0690,-62.3660,32.4800
0.0376,0.3570,-0.0560,1.1790,-5.3440,37.3890,-58.3360,32.4400
0.0378,0.2990,-0.0870,1.1380,-6.1680,49.0080,-58.0760,32.3900
0.0380,0.2990,-0.0930,1.2100,-9.4050,57.0230,-57.6180,32.3400
0.0382,0.3100,-0.1140,1.2710,-2.9160,55.7400,-57.0990,32.3900
0.0384,0.2340,-0.1550,1.3310,8.2290,50.3970,-59.9240,32.4400
0.0386,0.2260,-0.1690,1.3440,23.6340,36.6870,-61.7860,32.4800
0.0389,0.2900,-0.1380,1.2490,30.0760,39.0080,-64.6260,32.3900
0.0391,0.1550,-0.0690,1.0720,29.3890,40.1980,-65.7250,32.4400
0.0393,0.0750,-0.0520,0.9670,17.4810,14.9920,-62.0920,32.4800
0.0395,0.1470,-0.0100,0.8880,-0.9620,12.8090,-55.0990,32.4400
0.0397,0.1920,0.0180,0.8260,-25.5730,18.5340,-47.4960,32.3900
0.0400,0.2910,-0.0140,1.0230,-40.3510,15.3130,-42.9010,32.3400
0.0402,0.3970,-0.0750,1.3080,-39.7250,21.1300,-42.4730,32.3900
0.0404,0.4000,-0.1180,1.3510,-31.3590,34.8850,-45.1910,32.3400
0.0406,0.3830,-0.1070,1.3120,-25.3740,46.6110,-46.5190,32.3900
0.0407,0.3340,-0.1420,1.3440,-10.2600,44.9770,-50.9010,32.3900
0.0409,0.3270,-0.1330,1.2920,-13.8170,53.0840,-50.0310,32.3400
0.0410,0.3480,-0.0350,1.3120,-22.2750,54.9010,-47.4050,32.3900
0.0412,0.2500,-0.2880,1.1400,20.9620,6.0000,-49.8930,32.4400
0.0413,0.3120,-0.0620,1.0900,-10.2290,51.5880,-48.6260,32.3900
0.0415,0.1140,-0.0790,1.1930,-24.9620,30.9160,-46.5340,32.3400
0.0417,0.2760,-0.1620,1.2570,-9.9080,19.8470,-46.2600,32.3900
0.0419,0.2030,-0.0140,1.4970,-8.7480,21.8630,-45.3590,32.4400
0.0421,0.2500,-0.0940,1.2210,-6.1980,37.9850,-51.4050,32.4400
0.0423,0.1170,-0.1160,1.1540,-14.1370,29.2520,-49.7860,32.4800
0.0425,0.1510,-0.0930,1.1600,-13.2670,23.0990,-47.1600,32.4400
0.0427,0.1960,-0.1050,1.1670,-13.1910,26.8240,-44.3820,32.3900
0.0429,0.2280,-0.1170,1.1900,-15.7400,31.0230,-45.9850,32.3400
0.0431,0.2680,-0.1230,1.2400,-5.6490,15.2210,-50.2750,32.3900
0.0433,0.1170,-0.0990,1.1580,-9.9390,31.7250,-48.8550,32.4400
0.0435,0.1670,-0.1200,1.2090,-12.7180,13.1600,-45.7400,32.3900
0.0438,0.2050,-0.1470,1.2500,-9.8630,17.2520,-43.2060,32.3900
0.0440,0.2010,-0.0690,1.2880,-6.0610,24.4120,-39.0690,32.4400
0.0442,0.2190,-0.1160,1.2300,-7.5420,26.6260,-37.9390,32.4400
0.0444,0.2170,-0.0970,1.2250,-7.6640,29.3590,-36.5340,32.4400
0.0446,0.2220,-0.1030,1.2250,-6.1370,25.9540,-35.7250,32.3900
0.0448,0.2330,-0.1110,1.2390,-2.0460,26.9770,-34.7630,32.4400
0.0450,0.2330,-0.1190,1.2350,0.5650,35.7250,-32.5500,32.2900
0.0452,0.2920,-0.1200,1.2210,1.3280,38.9470,-33.5270,32.4400
0.0455,0.3160,-0.1030,1.2110,1.6030,40.7180,-38.1680,32.4400
0.0457,0.2650,-0.0950,1.1920,2.6110,33.9390,-42.5340,32.5300
0.0459,0.2480,-0.0830,1.1980,3.5110,27.9240,-44.6410,32.3400
0.0462,0.0400,-0.1530,1.1500,-1.8630,23.7560,-40.2140,32.4800
0.0463,0.0660,-0.1650,1.1740,-0.8850,22.1220,-41.3590,32.4400
0.0465,0.0710,-0.1590,1.1450,-1.5110,22.8550,-42.9620,32.3900
0.0467,0.0500,-0.1450,1.1400,-4.2600,21.4500,-43.6340,32.3400
0.0469,0.0430,-0.1490,1.1670,-5.1600,21.2060,-43.1150,32.4400
0.0550,0.0220,-0.1490,1.1580,-6.1680,24.9920,-41.3890,32.4800
0.0620,0.0240,-0.1530,1.1670,-7.0530,25.6950,-39.1300,32.4400
0.0739,0.0440,-0.1620,1.1660,-7.1300,27.9540,-38.0000,32.4800
0.0862,0.0300,-0.1770,1.1990,-5.0530,27.4200,-37.4500,32.3400
0.0930,0.0200,-0.1870,1.1950,-3.8170,27.6790,-36.3970,32.3900
0.1053,0.0350,-0.1830,1.2090,-1.2370,26.6260,-36.6110,32.4400
0.1119,0.0560,-0.1860,1.2170,2.5800,23.8630,-38.0610,32.3900
0.1242,0.0650,-0.1680,1.1070,1.9850,21.8780,-40.2600,32.4400
0.1365,-0.0060,-0.1400,1.2050,-1.1150,24.3970,-39.6490,32.5300
0.1432,0.0670,-0.1370,1.1380,-1.6030,16.2600,-39.8930,32.3900
0.1555,0.0400,-0.1240,1.1450,-2.5650,32.8850,-37.6490,32.4400
0.1623,0.0370,-0.1330,1.1030,-6.0000,32.1370,-37.1910,32.3900
0.1745,-0.0470,-0.1170,1.2180,-10.1530,26.3970,-33.7710,32.3400
0.1865,0.0950,-0.1550,1.2260,-5.8020,19.0690,-32.7180,32.4800
0.1934,0.0830,-0.1620,1.2680,-1.6180,37.2210,-33.0690,32.4400
0.2057,0.0760,-0.1350,1.2050,-2.0760,30.7940,-35.9240,32.4800
0.2122,0.0530,-0.1290,1.2150,-2.9470,32.5950,-37.9850,32.4800
0.2247,0.0650,-0.1920,1.1520,-1.7560,35.4660,-41.5570,32.3400
0.2306,-0.0420,-0.0990,1.3310,-3.3130,29.3890,-38.0610,32.3900
0.2439,0.0650,-0.1150,1.1780,-3.7860,30.4430,-37.7100,32.4400
0.2557,0.0410,-0.1070,1.2070,-5.8320,31.1150,-37.3590,32.4800
0.2632,0.0210,-0.1480,1.2310,-12.4580,40.5950,-37.0230,32.4400
0.2748,0.0610,-0.1300,1.2570,-5.9080,28.9770,-38.9160,32.4800
0.2806,0.0080,-0.1370,1.2250,-5.7860,41.7250,-38.1220,32.4400
0.2938,-0.0260,-0.1440,1.2270,-6.0920,34.1680,-37.8930,32.3900
0.3058,-0.0090,-0.0940,1.2090,-13.6950,40.8850,-36.0000,32.3900
0.3126,-0.0850,-0.1830,1.2910,-5.8630,22.0760,-38.0760,32.4400
0.3245,0.0010,-0.1820,1.2290,-5.6640,33.6180,-37.9080,32.4400
0.3366,-0.0800,-0.2540,1.3030,-6.2440,32.2600,-40.0150,32.4400
0.3435,0.0670,-0.1390,1.1800,-3.3590,34.2290,-41.5730,32.3900
0.3557,0.0060,-0.2520,1.2200,7.9690,34.7480,-45.9390,32.4400
0.3627,-0.0720,-0.1710,1.2760,10.2140,13.4810,-45.0990,32.3900
0.3747,-0.0510,-0.1690,1.1450,9.3590,20.2140,-44.8550,32.5300
0.3866,-0.0900,-0.1660,1.1620,6.7480,20.0310,-42.5650,32.4400
0.3938,-0.0460,-0.1690,1.1340,3.2210,21.4350,-40.2900,32.4400
0.4057,-0.0180,-0.1660,1.1440,0.1830,26.7480,-37.8320,32.4400
0.4129,0.0050,-0.1590,1.1350,-2.8700,29.3440,-37.6640,32.3900
0.4247,-0.0310,-0.1510,1.1670,-4.0610,28.0920,-37.6640,32.3400
0.4303,-0.0630,-0.1710,1.1670,-6.9620,33.2210,-37.7100,32.3900
0.4438,0.0090,-0.1830,1.2750,4.2290,18.9920,-39.0080,32.4400
0.4559,-0.0000,-0.1950,1.2370,5.8320,22.8400,-39.8930,32.5300
0.4627,0.0030,-0.1910,1.2200,9.2980,18.9470,-41.6490,32.4400
0.4750,-0.0020,-0.1760,1.1840,9.5420,16.0310,-43.6180,32.4400
0.4819,0.0190,-0.2110,1.1780,12.9770,25.1450,-45.4200,32.3900
0.4940,-0.0830,-0.1050,1.2020,11.5270,15.6340,-44.8240,32.4400
0.5060,-0.0360,-0.1030,1.0340,8.9470,14.5340,-45.4960,32.2900
0.5132,-0.0840,-0.0660,1.0320,3.4810,14.7480,-45.6490,32.4400
0.5249,-0.1040,-0.0630,0.9980,-2.8550,4.8090,-44.4270,32.4400
0.5319,-0.0640,-0.1000,1.0510,-9.2370,0.5190,-41.7560,32.4400
0.5440,0.0000,-0.1310,1.1100,-13.6030,2.0610,-39.3280,32.5300
0.5561,0.0540,-0.1590,1.1550,-17.6180,1.6640,-39.2820,32.2900
0.5631,0.0980,-0.1710,1.2000,-18.2440,3.3590,-42.2600,32.4400
0.5751,0.1130,-0.1900,1.2930,-11.1600,8.6560,-47.8170,32.3900
0.5821,0.0400,-0.1980,1.2630,-4.0000,12.4120,-51.2210,32.3400
0.5943,-0.0370,-0.1930,1.2120,-3.1910,7.7250,-51.1600,32.3900
0.6064,-0.0520,-0.1860,1.2200,-4.9160,8.0760,-48.1980,32.3400
0.6134,-0.0680,-0.1810,1.2060,-6.1680,8.0460,-44.1680,32.3400
0.6254,-0.0410,-0.1700,1.2160,-7.0080,10.9310,-40.4430,32.4800
0.6323,-0.0310,-0.1750,1.2510,-5.8320,9.5730,-37.0840,32.4400
0.6443,0.0420,-0.1720,1.3510,-2.2600,16.1370,-34.0460,32.3900
0.6564,0.0670,-0.2080,1.3020,6.1980,25.6030,-34.5500,32.5300
0.6636,0.0690,-0.1930,1.2650,9.0380,25.3890,-35.7250,32.4800
0.6758,0.0340,-0.1730,1.2330,9.8780,23.0840,-38.2600,32.4400
0.6825,0.0320,-0.1580,1.2180,11.6180,16.0920,-41.7100,32.4400
0.6947,0.0430,-0.0820,1.1670,23.1600,3.8470,-49.1150,32.3900
0.7018,0.0300,-0.1250,1.1020,8.6560,6.5500,-48.8400,32.3400
0.7140,-0.0120,-0.1170,1.1640,4.0310,6.4580,-47.7250,32.3900
0.7262,0.0200,-0.1430,1.1910,4.4430,6.2140,-44.9470,32.4400
0.7334,0.0350,-0.1570,1.2390,8.5650,10.9470,-42.7020,32.3900
0.7455,0.0330,-0.1670,1.1990,8.2290,14.4120,-41.3590,32.3400
0.7526,0.0140,-0.1420,1.1880,6.1070,16.4430,-38.9920,32.3900
0.7647,0.0200,-0.1370,1.1950,5.8470,14.0000,-37.4500,32.4800
0.7705,0.0240,-0.1400,1.1770,6.8700,15.0080,-36.8240,32.4400
0.7839,0.0480,-0.1170,1.1500,7.3280,11.4960,-37.3440,32.2900
0.7959,0.0870,-0.1100,1.1020,6.0760,9.0530,-39.7100,32.4400
0.8031,0.0880,-0.0940,1.0630,3.1300,5.6950,-44.1980,32.3900
0.8154,0.0590,-0.0810,1.0340,-1.5420,-1.0530,-47.6790,32.4400
0.8224,0.1020,-0.1170,0.9600,-4.7330,-0.0150,-50.4120,32.3900
0.8345,-0.0360,-0.1130,1.1200,-16.0760,-3.0080,-45.7250,32.3900
0.8465,0.0760,-0.1110,1.1640,-10.3050,-19.6180,-43.6790,32.5300
0.8531,0.1110,-0.1400,1.2190,-6.2140,9.7860,-40.6560,32.4800
0.8651,0.0650,-0.1460,1.1590,-4.9470,5.3740,-38.8700,32.4400
0.8724,0.0440,-0.1380,1.1630,-3.0380,17.2670,-35.8020,32.4800
0.8844,0.1070,-0.2000,1.1200,3.1760,21.8630,-38.0310,32.4400
0.8967,-0.0510,-0.1010,1.1900,3.2060,8.5340,-33.6950,32.3900
0.9035,0.0790,-0.1060,1.0610,4.8400,7.8630,-33.4960,32.4400
0.9160,0.0860,-0.0730,1.0450,1.9080,1.2210,-36.1980,32.3400
0.9231,0.1170,-0.0760,1.1130,1.2210,3.8930,-38.6720,32.4800
0.9352,0.1740,-0.1080,1.1510,2.9770,2.9920,-41.5730,32.3400
0.9424,0.1880,-0.1450,1.1800,4.5500,13.7100,-43.9540,32.3900
0.9547,0.1850,-0.1650,1.1900,5.8170,21.4500,-46.9920,32.4400
0.9665,0.0820,-0.1820,1.2120,10.0000,26.2290,-49.0990,32.3900
0.9735,0.0410,-0.1710,1.1770,11.3440,26.8400,-48.2600,32.3400
0.9857,0.0510,-0.1480,1.1250,12.0920,20.0150,-47.7860,32.4400
0.9927,0.0820,-0.1180,1.1120,7.9850,20.3820,-46.9620,32.3900
1.0046,0.0630,-0.1020,1.1420,6.0000,19.0230,-47.5730,32.4400
1.0115,0.0000,-0.1030,1.1080,6.9310,18.1220,-46.3510,32.4800
1.0238,-0.0350,-0.1030,1.1300,5.6790,15.3740,-44.2900,32.4400
1.0360,-0.0300,-0.1120,1.1590,6.2290,13.5570,-42.2440,32.3900
1.0428,-0.0040,-0.1450,1.2150,10.8700,10.5190,-40.6870,32.3400
1.0547,0.0580,-0.1540,1.1940,11.7860,16.7330,-39.1760,32.3900
1.0617,0.0650,-0.1370,1.1700,9.9240,20.0460,-38.9160,32.3900
1.0739,0.0640,-0.1190,1.1420,7.8630,20.2900,-39.7100,32.3400
1.0862,0.0350,-0.0940,1.1190,6.7330,16.2750,-39.7100,32.3900
1.0929,0.0780,-0.0910,1.0990,3.2520,14.7790,-39.6640,32.3400
1.1052,0.1290,-0.0980,1.1460,1.2820,13.6640,-41.2820,32.3900
1.1122,0.1500,-0.1110,1.1810,2.8090,15.8320,-42.8400,32.4400
1.1245,0.1250,-0.1190,1.1710,3.0530,22.4120,-43.2820,32.3900
1.1315,0.1190,-0.1180,1.1720,2.9470,21.2980,-44.1980,32.4400
1.1437,0.0860,-0.1190,1.2310,6.3210,20.3050,-45.3590,32.5300
1.1560,0.1000,-0.1270,1.2120,11.1300,18.1530,-46.3360,32.4800
1.1628,0.0990,-0.1130,1.1590,12.1370,20.0310,-47.5730,32.4400
1.1751,0.0770,-0.0900,1.1150,10.2290,15.9690,-49.3130,32.3900
1.1819,0.0430,-0.0660,1.0920,7.0990,15.7560,-48.9620,32.4400
1.1940,0.0090,-0.0540,1.0640,4.1220,14.4890,-46.7940,32.4800
1.2064,0.0050,-0.0420,1.0620,-1.7710,15.1150,-42.8700,32.3400
1.2132,0.0420,-0.0670,1.1580,-2.6110,12.9920,-39.9390,32.3900
1.2255,0.0700,-0.0920,1.2190,1.5420,19.4050,-37.6640,32.3900
1.2326,0.1080,-0.0990,1.2030,3.0530,23.0990,-36.0460,32.3400
1.2448,0.1260,-0.0800,1.2190,4.7940,26.7180,-37.8020,32.4400
1.2506,0.1260,-0.0540,1.1780,6.9470,23.1450,-39.2820,32.2500
1.2640,0.1440,-0.0280,1.1440,6.3660,20.7790,-40.8700,32.4800
1.2758,0.1610,-0.0120,1.1060,3.9850,17.3440,-43.0230,32.3400
1.2829,0.2010,-0.0190,1.1180,0.8400,18.5650,-45.9390,32.3900
1.2951,0.1840,-0.0310,1.1130,-0.5950,19.4050,-49.9240,32.4400
1.3018,0.1080,-0.0630,1.1440,-1.7560,16.1830,-52.0150,32.4400
1.3141,0.0620,-0.0940,1.2410,2.8400,10.0310,-51.6950,32.3400
1.3264,0.0530,-0.1320,1.2350,7.4050,19.5110,-49.2820,32.3400
1.3335,0.0190,-0.1290,1.2320,8.8400,23.3890,-46.1980,32.4800
1.3457,0.0250,-0.1300,1.2270,9.8320,23.7560,-43.7560,32.4400
1.3526,0.0500,-0.1140,1.1870,10.5650,22.0150,-42.8550,32.3900
1.3647,0.0680,-0.0800,1.1470,8.7330,19.4050,-43.3130,32.4400
1.3719,0.0790,-0.0510,1.1230,5.6180,17.7710,-43.8020,32.3400
1.3838,0.0810,-0.0350,1.0830,1.8470,16.5500,-43.0530,32.4400
1.3962,0.1160,-0.0300,1.1070,-2.6720,15.0690,-43.0380,32.3400
1.4027,0.1780,-0.0510,1.1760,-3.3440,13.6640,-44.9920,32.3900
1.4152,0.1880,-0.0480,1.1870,-0.4270,10.9620,-50.2750,32.3400
1.4227,0.1870,-0.0490,1.1720,0.0610,8.5950,-55.2210,32.3900
1.4341,0.1680,-0.0620,1.2660,4.9470,2.1980,-58.9310,32.4400
1.4465,0.1790,-0.0840,1.2760,12.5800,14.6870,-59.0080,32.4800
1.4534,0.1110,-0.0940,1.2370,15.7860,18.0460,-56.9620,32.3400
1.4656,0.0520,-0.0590,1.1900,9.5730,22.6260,-51.5420,32.4400
1.4726,0.0560,-0.0640,1.1020,6.8090,27.3890,-48.5190,32.3900
1.4848,0.0200,-0.0610,1.1120,1.4660,21.2210,-46.6110,32.3400
1.4918,0.0110,-0.0700,1.1460,-1.2060,18.0310,-45.2980,32.3900
1.5042,0.0160,-0.0790,1.1810,0.4580,14.9470,-44.9160,32.4400
1.5162,-0.0090,-0.0750,1.1680,0.5650,11.6180,-43.4500,32.4800
1.5232,0.0860,-0.0970,1.2200,1.3890,7.8170,-44.3970,32.4400
1.5351,0.1010,-0.1020,1.2860,7.4350,9.7400,-46.7180,32.3900
1.5421,0.0580,-0.0670,1.2270,8.3360,16.5950,-46.1070,32.3900
1.5547,0.0530,-0.0520,1.1610,10.7790,15.7250,-43.0080,32.4400
1.5666,0.0930,-0.0170,1.1250,5.5420,19.1910,-39.7560,32.3900
1.5737,0.1340,-0.0210,1.1310,2.2440,20.8850,-38.4430,32.4400
1.5860,0.1480,-0.0310,1.1550,0.6410,21.0080,-39.2060,32.2900
1.5928,0.1430,-0.0460,1.1850,0.5800,19.6180,-41.3590,32.4400
1.6051,0.1300,-0.0750,1.2380,6.1830,13.3590,-45.4960,32.3900
1.6121,0.1250,-0.0620,1.2070,9.9690,8.9920,-50.1370,32.4400
1.6243,0.1000,-0.0590,1.1980,10.4270,5.5570,-53.9240,32.4400
1.6363,0.1020,-0.0570,1.2080,13.0840,5.7100,-54.8400,32.4800
1.6436,0.0600,-0.0490,1.1540,11.4500,10.4730,-50.8850,32.4400
1.6557,0.0790,-0.0380,1.1470,6.3510,14.9620,-44.8850,32.3900
1.6626,0.0970,-0.0320,1.1550,2.2440,20.0920,-40.1070,32.3400
1.6746,0.0900,-0.0210,1.1520,-0.0310,23.0530,-36.2440,32.3900
1.6817,0.1330,-0.0380,1.2170,-0.1370,23.1300,-34.1830,32.4400
1.6938,0.1950,-0.0430,1.2650,4.6560,25.5110,-35.2980,32.2900
1.7059,0.2080,-0.0470,1.2490,7.3740,26.3660,-40.2140,32.2900
1.7132,0.2220,-0.0230,1.2190,8.3210,22.8700,-46.0760,32.4400
1.7251,0.2080,-0.0160,1.2020,9.7560,15.4660,-52.5950,32.3900
1.7323,0.1820,-0.0080,1.1870,10.3660,10.9160,-56.4580,32.3400
1.7443,0.1430,-0.0100,1.0590,2.0760,10.8240,-54.9470,32.2900
1.7564,0.1180,-0.0370,1.3680,3.0840,22.9770,-52.3820,32.4400
1.7635,0.1590,-0.0520,1.2870,14.9620,16.4430,-49.9240,32.3900
1.7758,0.0910,-0.0280,1.1800,11.1760,37.4200,-43.9240,32.4400
1.7827,0.0850,-0.0060,1.1850,10.3510,24.0920,-41.7250,32.5300
1.7948,0.1480,-0.0220,1.2120,11.5110,26.7330,-41.7560,32.3900
1.8066,0.1590,-0.0310,1.2140,15.3440,21.3440,-46.4890,32.3400
1.8138,0.1330,-0.0020,1.1430,12.4430,14.6110,-51.2370,32.4800
1.8258,0.0970,0.0100,1.1730,11.4500,19.3440,-54.1220,32.4400
1.8329,0.0630,0.0200,1.1170,11.7400,14.6870,-54.0000,32.3900
1.8449,0.0340,0.0410,1.0890,6.7330,16.6870,-49.8630,32.4400
1.8521,0.0470,0.0530,1.0590,0.1370,15.0080,-45.7710,32.4400
1.8643,-0.0060,0.0410,1.1810,-5.9850,23.4350,-39.5110,32.3900
1.8764,0.1480,0.1140,1.1330,-11.6640,24.0310,-35.6340,32.3400
1.8830,0.1450,-0.0120,1.3130,2.9770,28.6260,-40.7940,32.3900
1.8952,0.0960,0.0030,1.3300,6.7790,22.6560,-43.5110,32.3400
1.9025,0.1490,0.0010,1.1910,11.1450,14.7790,-51.6180,32.3900
1.9148,0.1250,0.0310,1.1950,10.6260,13.5270,-55.6640,32.4400
1.9220,0.1480,0.0330,1.1280,12.6410,5.4350,-61.0530,32.5300
1.9341,0.0880,0.0210,1.1340,10.0920,4.3510,-60.7020,32.3900
1.9465,0.0470,0.0120,1.1580,9.5730,3.8170,-56.4730,32.4400
1.9536,0.0720,0.0060,1.1600,6.9770,13.1910,-50.4730,32.4800
1.9655,0.0420,0.0090,1.1930,7.7250,18.5190,-45.4660,32.4400
1.9727,0.0500,0.0210,1.1410,7.5570,21.7710,-40.5040,32.4800
1.9852,0.0920,0.0260,1.1450,6.4270,23.9390,-37.9240,32.4400
1.9924,0.1500,0.0170,1.1980,9.4500,24.6720,-39.1600,32.3900
2.0046,0.1770,0.0140,1.1900,10.9010,27.4500,-41.4960,32.4800
2.0166,0.1570,0.0160,1.1710,12.7480,23.4810,-45.1760,32.3400
2.0238,0.1350,0.0430,1.1560,13.0690,17.7860,-47.9390,32.3900
2.0359,0.1040,0.0470,1.1260,12.3360,13.6180,-48.1220,32.3400
2.0428,0.1280,0.0620,1.1120,9.5880,19.2980,-48.5190,32.3900
2.0553,0.1020,0.0530,1.0840,7.4500,15.4050,-48.7020,32.5300
2.0623,0.0850,0.0470,1.0930,4.5040,14.9620,-47.2820,32.3900
2.0745,0.1060,0.0190,1.1300,4.6260,14.0000,-45.3280,32.3900
2.0866,0.1150,0.0070,1.1690,5.2210,15.5270,-44.8700,32.4400
2.0938,0.1600,-0.0020,1.2020,6.8090,19.5570,-45.1760,32.3400
2.1059,0.1370,-0.0110,1.2170,9.4200,22.5500,-45.7710,32.3400
2.1132,0.0880,0.0080,1.1790,9.9850,21.6790,-45.9080,32.3900
2.1252,0.0680,0.0350,1.1430,8.2440,18.9310,-44.7940,32.4400
2.1323,0.0780,0.0500,1.1350,6.3820,16.7180,-43.3280,32.3900
2.1447,0.1120,0.0480,1.1410,5.2210,16.9010,-41.0690,32.3900
2.1519,0.1730,0.0370,1.1930,4.4730,19.4350,-40.5650,32.4400
2.1640,0.2130,0.0250,1.2540,8.0310,19.4500,-44.7480,32.4400
2.1762,0.2480,0.0270,1.2900,12.8700,19.9390,-50.9010,32.4400
2.1834,0.2110,0.0410,1.2320,15.5110,19.2670,-56.6410,32.4800
2.1954,0.1580,0.0700,1.1890,15.0380,17.0080,-59.3280,32.4400
2.2026,0.1130,0.0890,1.1420,13.6490,19.2820,-57.7100,32.4800
2.2149,0.0470,0.0920,1.1080,10.6260,22.0920,-53.3280,32.4400
2.2206,0.0200,0.0980,1.1150,7.0840,26.5190,-45.8930,32.4400
2.2341,0.0020,0.0820,1.1260,4.4730,31.5570,-38.2900,32.3400
2.2464,0.0720,0.1030,1.1740,1.8930,38.9160,-32.7180,32.4400
2.2533,0.1020,0.0580,1.2070,4.7630,30.5950,-32.3970,32.3900
2.2655,0.1820,0.0700,1.1980,8.4120,33.9240,-37.5880,32.4400
2.2725,0.1850,0.0720,1.2250,11.5880,25.2820,-45.5420,32.4800
2.2847,0.1670,0.0820,1.2200,15.4500,18.7330,-52.3360,32.4400
2.2918,0.1500,0.0970,1.1860,16.1370,12.8700,-55.8780,32.3400
2.3041,0.1230,0.0990,1.1590,12.1530,12.5500,-54.6110,32.4400
2.3161,0.1490,0.0910,1.1640,7.2060,15.6950,-51.1150,32.4400
2.3233,0.1490,0.0900,1.1950,5.1600,21.0230,-48.3820,32.2900
2.3354,0.1210,0.0960,1.1820,3.8020,23.7400,-45.7710,32.4400
2.3428,0.1040,0.1040,1.1720,2.9010,24.9920,-44.1980,32.3900
2.3550,0.1070,0.1100,1.1520,1.9080,24.1980,-42.8550,32.3400
2.3620,0.1200,0.1070,1.1430,0.7020,22.2900,-42.6110,32.4400
2.3743,0.1220,0.1000,1.1710,0.2900,13.2060,-43.7710,32.4400
2.3864,0.1480,0.1090,1.1850,1.6640,27.7400,-44.1680,32.5300
2.3936,0.1160,0.1050,1.1760,5.0530,23.8470,-47.3740,32.4800
2.4059,0.0620,0.1100,1.1710,6.5500,21.7250,-47.7100,32.3400
2.4133,0.0850,0.1130,1.1600,7.8170,16.9160,-47.4960,32.3900
2.4251,0.0910,0.1210,1.1510,8.6560,17.0990,-46.5800,32.4400
2.4321,0.0840,0.1420,1.1140,6.4120,19.1910,-44.6720,32.3900
2.4445,0.0750,0.1680,1.0850,2.3660,21.0530,-41.4960,32.3400
2.4505,0.0840,0.1870,1.0920,-0.6410,21.5420,-38.8240,32.3400
2.4638,0.1120,0.1910,1.1360,-1.9850,18.8400,-37.4960,32.3900
2.4760,0.1580,0.1730,1.1500,-0.4580,17.2980,-38.5190,32.4400
2.4831,0.1990,0.1680,1.1470,-1.5420,19.2670,-41.2820,32.4800
2.4952,0.2320,0.1530,1.1870,-0.1530,19.7860,-45.3590,32.4400
2.5022,0.2350,0.1080,1.2150,3.4200,19.2670,-50.1220,32.3900
2.5144,0.2080,0.0850,1.1800,4.4890,18.5650,-55.8320,32.3400
2.5266,0.1060,0.0720,1.1630,2.9160,14.9920,-59.2370,32.4400
2.5338,0.0610,0.0660,1.1460,1.7100,10.8400,-59.5880,32.3900
2.5462,0.0400,0.0670,1.1500,0.2440,8.5340,-58.3360,32.4400
2.5533,0.0260,0.0680,1.1600,-1.4960,8.5340,-54.9010,32.4800
2.5654,0.0160,0.0610,1.1870,-0.9920,6.8700,-50.7330,32.4400
2.5726,0.0600,0.0420,1.2430,3.4660,11.4500,-46.1680,32.4800
2.5850,0.0850,0.0400,1.2160,6.1370,18.2290,-42.5340,32.3400
2.5922,0.0710,0.0650,1.1550,5.2060,19.1600,-39.6340,32.3900
2.6043,0.1060,0.0930,1.1330,3.8630,16.5040,-38.2290,32.3900
2.6163,0.1830,0.0750,1.1370,6.7630,17.4350,-40.0920,32.5300
2.6234,0.2300,0.1180,1.1470,4.1980,15.4660,-44.2440,32.4800
2.6361,0.2100,0.1320,1.1580,4.3970,16.5040,-48.2600,32.3400
2.6432,0.2090,0.1200,1.1600,3.6030,12.8400,-50.6260,32.4800
2.6552,0.1750,0.1420,1.1650,2.9160,16.3970,-51.6790,32.5300
2.6623,0.1720,0.1520,1.1750,3.4050,10.9620,-50.2440,32.4800
2.6744,0.2090,0.1360,1.2430,5.0380,14.5800,-49.1300,32.4400
2.6802,0.1950,0.1310,1.2380,7.9390,19.6030,-48.2140,32.3400
2.6941,0.1810,0.1390,1.1870,7.2370,19.8780,-48.2140,32.4800
2.7062,0.1770,0.1600,1.1540,6.8090,18.5800,-49.9540,32.3400
2.7134,0.1680,0.1620,1.1310,7.1600,15.6640,-51.8170,32.3900
2.7254,0.1610,0.1600,1.1040,5.2980,13.8320,-53.4810,32.4400
2.7325,0.1650,0.1470,1.1120,1.2820,12.2290,-53.8320,32.3900
2.7449,0.1990,0.1220,1.1810,0.4430,14.6870,-53.2060,32.4400
2.7521,0.1690,0.0920,1.2190,1.6030,17.9240,-52.4890,32.4400
2.7643,0.1720,0.0670,1.2450,3.0380,22.5040,-51.2370,32.4800
2.7763,0.1480,0.0690,1.2720,5.9540,23.4960,-51.2370,32.3400
2.7836,0.1460,0.0790,1.2360,7.5570,22.6560,-52.3360,32.3900
2.7960,0.1360,0.1000,1.2230,8.8400,19.7400,-53.3440,32.4400
2.8033,0.1410,0.1090,1.2460,10.6110,15.0690,-54.4430,32.4800
2.8152,0.1310,0.1210,1.2340,13.2820,14.7480,-54.6560,32.4400
2.8223,0.1010,0.1250,1.1870,12.8850,12.3360,-52.6870,32.3900
2.8341,0.1220,0.1440,1.1580,10.6560,13.2670,-49.6030,32.4800
2.8466,0.1620,0.1440,1.1560,10.8700,16.3210,-47.6950,32.4400
2.8535,0.1990,0.1470,1.1510,9.0990,21.7100,-47.0380,32.3900
2.8656,0.2060,0.1460,1.1460,9.0840,23.7860,-47.2210,32.4400
2.8729,0.2330,0.1310,1.1680,9.2670,27.7250,-50.2600,32.3900
2.8852,0.1820,0.1120,1.1720,10.3970,26.4430,-54.8400,32.4400
2.8920,0.1150,0.1030,1.1890,11.2060,21.4050,-57.7400,32.3900
2.9041,0.0570,0.0940,1.1910,12.4430,15.0990,-57.8630,32.3900
2.9164,0.0470,0.1040,1.1710,12.9770,11.4810,-56.2600,32.4400
2.9235,0.0570,0.1050,1.2200,14.4580,10.3970,-53.3440,32.2900
2.9357,0.0780,0.0920,1.2150,18.2440,16.3820,-50.0150,32.4400
2.9429,0.0720,0.1260,1.1680,16.2440,19.1600,-46.2140,32.4800
2.9549,0.1020,0.1590,1.1550,14.5190,19.2370,-44.3820,32.3400
2.9617,0.1270,0.1730,1.1320,12.8240,19.6030,-43.9690,32.4800
2.9740,0.1520,0.1800,1.1290,11.6790,19.0690,-44.4120,32.4400
2.9861,0.1440,0.1920,1.1230,10.2140,19.8630,-45.4810,32.4400
2.9933,0.1190,0.1850,1.1310,9.3590,16.6720,-46.1070,32.3900
3.0055,0.1460,0.1720,1.1770,11.4660,11.3280,-47.2060,32.4400
3.0127,0.1610,0.1390,1.2280,15.5730,9.2210,-49.3440,32.4800
3.0247,0.1300,0.1010,1.2500,20.7180,13.0230,-49.1760,32.3400
3.0319,0.0950,0.1330,1.2400,21.3280,19.2520,-46.2750,32.4800
3.0441,0.1000,0.1800,1.1250,21.0990,16.9310,-44.6110,32.5300
3.0562,0.0860,0.2220,1.0610,17.0840,17.9540,-41.1760,32.4400
3.0633,0.0940,0.2340,1.0420,12.3820,16.6110,-36.8700,32.4800
3.0755,0.1280,0.2320,1.0710,7.9240,22.0000,-32.3210,32.3400
3.0826,0.1520,0.2270,1.0880,6.3210,25.6640,-30.1070,32.4800
3.0948,0.1970,0.2300,1.1070,4.9470,27.1910,-32.2600,32.4400
3.1019,0.2170,0.2360,1.1310,5.7860,22.6870,-37.5110,32.3900
3.1141,0.2180,0.2390,1.1760,9.7400,15.6180,-43.4660,32.4400
3.1264,0.2430,0.2280,1.1500,12.6260,17.3130,-47.7100,32.3400
3.1333,0.2070,0.2360,1.1190,11.4200,18.4730,-49.2060,32.3900
3.1454,0.1720,0.2510,1.0760,9.9080,21.7400,-48.1220,32.3400
3.1524,0.1440,0.2590,1.0590,9.3740,25.5730,-46.1070,32.3900
3.1650,0.1410,0.2640,1.0420,8.7180,25.1450,-44.8090,32.4400
3.1722,0.1750,0.2750,1.0440,7.5730,25.1150,-45.2520,32.5800
3.1843,0.2010,0.2740,1.0610,7.9690,22.6560,-47.4200,32.3400
3.1964,0.1870,0.2830,1.0440,6.9010,22.5340,-48.9920,32.3900
3.2035,0.1780,0.2910,1.0070,3.3280,22.4890,-48.7790,32.4800
3.2159,0.1870,0.2880,1.0250,-0.2900,22.2600,-48.5950,32.4400
3.2229,0.1620,0.2950,1.0460,-1.7860,24.1830,-48.4270,32.5300
3.2349,0.1560,0.3110,1.0290,-7.9390,28.7480,-46.7330,32.5300
3.2422,0.1630,0.2970,1.0800,-13.4500,30.4730,-44.1680,32.3900
3.2544,0.1750,0.2460,1.1560,-2.0460,18.1530,-44.6110,32.4400
3.2664,0.2010,0.2470,1.1530,7.1600,27.7250,-47.8020,32.3900
3.2735,0.1840,0.2550,1.0550,5.3280,27.9080,-49.0230,32.4400
3.2857,0.1640,0.2670,1.0790,3.7710,22.4890,-50.0000,32.4800
3.2929,0.1590,0.2650,1.0530,5.5420,22.1680,-50.8700,32.4400
3.3050,0.1380,0.2740,1.0140,1.8630,23.1150,-48.6110,32.5300
3.3120,0.1550,0.2670,1.0190,-0.9470,27.7860,-46.8700,32.3900
3.3243,0.1530,0.2740,1.0340,-1.4350,31.8780,-45.7100,32.4400
3.3364,0.1230,0.2670,1.0570,-2.9470,32.2750,-45.3740,32.3900
3.3436,0.1060,0.2500,1.1210,-1.3130,22.2600,-45.6950,32.4400
3.3557,0.1560,0.2100,1.1700,5.0230,25.4500,-45.5110,32.3900
3.3629,0.1330,0.2090,1.1110,5.6340,31.5880,-45.8630,32.4400
3.3750,0.1200,0.2400,1.0920,4.0760,29.8630,-46.1680,32.4400
3.3819,0.1040,0.2610,1.1010,4.5340,27.2520,-47.8780,32.3900
3.3942,0.0920,0.2680,1.0810,5.1450,20.8240,-49.8170,32.4400
3.4065,0.0830,0.2600,1.0760,4.0610,15.2060,-50.7180,32.4800
3.4138,0.0780,0.2450,1.0580,2.5040,13.3130,-49.8780,32.4400
3.4258,0.0700,0.2230,1.0710,2.2140,9.4660,-48.4890,32.3400
3.4333,0.1150,0.2200,1.0810,0.9620,12.7180,-46.4430,32.4400
3.4454,0.1230,0.2180,1.0660,-0.7630,16.7330,-44.5040,32.3400
3.4526,0.1240,0.2150,1.0940,-2.2440,19.4660,-42.8400,32.4800
3.4647,0.1130,0.2080,1.1220,-2.1980,21.6950,-42.6870,32.4400
3.4705,0.1060,0.2010,1.1340,-0.1680,22.2140,-44.2140,32.3900
3.4838,0.0260,0.2010,1.1190,-0.0920,19.0690,-46.1830,32.4400
3.4960,0.0620,0.2190,1.0650,-2.5340,23.0840,-43.9690,32.3900
3.5031,0.0180,0.2090,1.0400,-4.1980,17.1300,-40.0310,32.3400
3.5152,0.0590,0.2010,1.0750,-8.0920,17.0230,-35.1600,32.4400
3.5224,0.1060,0.1850,1.1300,-8.2290,22.9010,-31.7250,32.3900
3.5345,0.1110,0.1990,1.1360,-7.9390,27.1910,-30.0310,32.4400
3.5467,0.1000,0.2080,1.1380,-7.5270,26.0920,-30.2290,32.4800
3.5536,0.0920,0.2080,1.1300,-6.6870,24.1980,-30.3970,32.3400
3.5658,0.1430,0.2010,1.1560,-4.7480,18.9770,-32.3210,32.2900
3.5728,0.1820,0.2050,1.1430,-3.0840,17.0080,-36.8850,32.4400
3.5851,0.1880,0.2220,1.1460,-1.9390,17.4050,-41.2980,32.3400
3.5923,0.1370,0.2320,1.1430,-0.5340,17.9080,-44.4730,32.3900
3.6043,0.1140,0.2460,1.1250,-0.6110,15.0380,-43.9240,32.4400
3.6164,0.1090,0.2500,1.1280,-1.8020,17.5110,-41.8470,32.3900
3.6233,0.1090,0.2500,1.1300,-1.9080,19.5570,-38.8090,32.4400
3.6355,0.1270,0.2580,1.1040,-3.6340,25.2670,-35.7560,32.4800
3.6426,0.1540,0.2670,1.1030,-7.4350,28.6260,-34.4430,32.4400
3.6548,0.1710,0.2580,1.1290,-6.9470,26.3210,-35.5270,32.3900
3.6618,0.1850,0.2500,1.1480,-7.5420,25.4960,-37.3280,32.3900
3.6740,0.1910,0.2520,1.1380,-6.0310,23.2520,-41.1600,32.4400
3.6861,0.1770,0.2510,1.1550,-4.5650,22.0150,-44.1370,32.3900
3.6930,0.1400,0.2430,1.1920,-0.5190,18.2750,-46.6110,32.3400
3.7052,0.1100,0.2290,1.1620,1.1910,20.5650,-45.6030,32.3900
3.7125,0.1170,0.2280,1.1340,-0.4270,19.2520,-43.5110,32.4400
3.7245,0.1740,0.2340,1.1250,-0.9010,21.0380,-43.1450,32.3900
3.7366,0.1940,0.2230,1.0920,-1.4500,22.9010,-44.4270,32.4400
3.7438,0.1670,0.2160,1.1090,-2.5650,21.3890,-45.4810,32.4800
3.7559,0.1640,0.2020,1.1190,-1.4200,24.2900,-45.1300,32.4800
3.7633,0.1240,0.2020,1.1150,-0.2440,26.3820,-44.2900,32.4400
3.7752,0.1120,0.2010,1.0840,-0.9620,27.7860,-42.6410,32.4800
3.7822,0.0950,0.2000,1.1100,0.9470,27.2520,-41.6950,32.3400
3.7945,0.1090,0.1980,1.1000,3.3590,30.1830,-39.9690,32.4800
3.8066,0.0760,0.2110,1.0680,2.5040,29.6950,-38.4270,32.3400
3.8138,0.0940,0.2320,1.0410,0.9010,27.4200,-37.1760,32.3900
3.8259,0.1230,0.2480,1.0320,-0.7940,23.8020,-38.0000,32.3900
3.8331,0.1110,0.2590,1.0450,-1.8630,19.7860,-38.9160,32.4400
3.8453,0.1240,0.2570,1.0280,-3.3440,16.8400,-39.8780,32.3900
3.8524,0.1430,0.2440,1.0880,-3.9540,16.3970,-39.7100,32.4400
3.8645,0.1710,0.2270,1.1030,-2.2600,18.6720,-39.8930,32.3900
3.8766,0.1460,0.2210,1.0900,-3.0840,21.8780,-39.8630,32.4400
3.8836,0.1290,0.2250,1.0780,-4.5190,20.5340,-39.6340,32.3900
3.8956,0.1570,0.1970,1.1190,-2.7940,17.5880,-40.1830,32.4400
3.9028,0.1680,0.1980,1.0960,-1.8470,19.4050,-41.4200,32.3900
3.9150,0.1320,0.2030,1.0900,-2.5650,16.3210,-41.9690,32.3900
3.9223,0.1260,0.2120,1.0640,-3.8780,16.1680,-40.8700,32.4400
3.9343,0.1180,0.2040,1.0620,-4.6720,16.5950,-38.8240,32.4400
3.9465,0.1380,0.1980,1.0510,-6.5500,19.3130,-37.4350,32.3400
3.9534,0.1290,0.2010,1.0520,-7.7860,17.9690,-37.0690,32.3900
3.9652,0.1470,0.1990,1.0660,-6.2440,17.5110,-37.3890,32.3400
3.9727,0.1200,0.2200,1.0490,-6.2290,19.5270,-36.9470,32.3900
3.9848,0.1030,0.2440,1.0360,-7.2980,20.6870,-36.0150,32.3900
3.9919,0.0780,0.2600,1.0240,-11.1450,20.9920,-33.2210,32.4400
