Time,AX,AY,AZ,GX,GY,GZ,T
0.0000,0.1890,0.2350,1.1080,-3.1450,13.4350,-41.9240,32.2000
0.0005,0.2580,0.2100,1.1490,-1.1760,14.5950,-43.6030,32.0600
0.0009,0.2890,0.2080,1.1270,-0.0920,17.8320,-48.6870,32.0600
0.0013,0.2500,0.1990,1.1040,0.5500,13.1600,-54.0460,32.1500
0.0017,0.2020,0.1970,1.0720,0.0150,12.2750,-56.2900,32.2000
0.0021,0.1510,0.1860,1.0240,-2.0460,10.7940,-54.9470,32.1500
0.0025,0.1570,0.1630,1.0470,-5.4050,12.1680,-51.6950,32.1100
0.0029,0.1700,0.1210,1.1110,-5.0080,16.0610,-48.8700,32.1500
0.0034,0.1420,0.1050,1.1180,-4.0310,19.6950,-46.5800,32.0600
0.0039,0.1640,0.1110,1.1220,-4.1070,19.7250,-45.7250,32.1500
0.0047,0.1860,0.1250,1.1080,-3.7560,17.7100,-47.7100,32.1500
0.0051,0.1610,0.1240,1.1120,-2.1830,14.6720,-48.3210,32.1100
0.0055,0.1450,0.1220,1.1020,-2.0610,13.4810,-45.6340,32.0600
0.0059,0.2090,0.1230,1.1290,-1.8930,16.9620,-42.3820,32.2900
0.0063,0.2410,0.1270,1.1310,-0.6560,22.9620,-40.8850,32.1500
0.0066,0.2440,0.1250,1.1310,-0.2290,25.3890,-41.7710,32.1100
0.0070,0.2190,0.1400,1.1350,1.6030,24.6260,-43.1600,32.1500
0.0074,0.2010,0.1490,1.1010,1.5570,25.5270,-43.4810,32.0600
0.0077,0.2330,0.1520,1.1230,2.0310,28.0610,-42.9470,32.2000
0.0081,0.2240,0.1660,1.1140,3.0230,29.8470,-42.8400,32.1500
0.0084,0.1730,0.1660,1.1120,4.1530,27.4660,-42.8400,32.2000
0.0088,0.2040,0.1540,1.0800,3.2370,27.3890,-42.7480,32.2500
0.0091,0.1540,0.1700,1.0940,2.3970,26.5190,-43.1910,32.2000
0.0095,0.1340,0.1780,1.0770,2.1830,24.9470,-42.7020,32.1500
0.0098,0.1190,0.1840,1.0430,-0.7630,24.5040,-41.3280,32.1500
0.0101,0.1330,0.1860,1.0440,-4.0000,22.3510,-40.9160,32.1100
0.0105,0.1370,0.1790,1.0940,-4.1220,22.1980,-40.2140,32.1500
0.0108,0.1550,0.1600,1.1270,-2.3820,20.8090,-39.1150,32.1100
0.0112,0.1680,0.1510,1.1440,-1.2520,21.4200,-38.5340,32.2500
0.0118,0.1780,0.1590,1.1290,-0.3510,22.8550,-39.0380,32.2000
0.0123,0.1710,0.1680,1.1120,0.2140,21.1600,-39.0080,32.1500
0.0127,0.2140,0.1640,1.1440,0.9310,20.4430,-39.0690,32.1500
0.0131,0.1900,0.1600,1.1320,3.7710,24.5190,-38.7020,32.2000
0.0135,0.1850,0.1500,1.0760,1.8320,26.3970,-37.0690,32.1500
0.0138,0.1980,0.1400,1.0990,0.4580,26.4270,-35.1300,32.1100
0.0142,0.2290,0.1260,1.0950,2.2750,27.2060,-35.5880,32.0600
0.0146,0.2110,0.1010,1.0580,2.6110,26.5950,-36.6260,32.1100
0.0150,0.1870,0.0930,1.0870,2.7630,20.2600,-37.7560,32.1500
0.0153,0.2130,0.0880,1.1350,15.7860,0.3510,-39.1150,32.2000
0.0160,0.2800,0.0830,0.9280,10.3970,38.5340,-38.3820,32.1100
0.0166,0.0340,0.0890,0.9360,2.6720,17.1600,-37.7710,32.1500
0.0171,0.1110,0.0850,0.9100,-1.4500,18.2140,-34.0760,32.2000
0.0174,0.1210,0.0670,1.0100,1.4960,19.2670,-31.0990,32.1500
0.0177,0.1970,0.1010,1.0180,3.2820,20.4580,-33.0230,32.2000
0.0181,0.1820,0.1340,1.0330,5.4500,20.2900,-37.4200,32.2500
0.0184,0.1180,0.1790,0.9670,4.7940,19.6640,-38.3660,32.1100
0.0187,0.0850,0.2090,0.9580,2.9620,16.5040,-35.2820,32.1500
0.0190,0.0940,0.2190,0.9470,1.7860,19.5420,-29.8470,32.2000
0.0193,0.1470,0.2020,1.0020,1.4810,24.3820,-24.2440,32.1100
0.0196,0.2270,0.1890,0.9940,1.6950,30.9160,-24.1070,32.1500
0.0205,0.2480,0.1970,0.9660,1.3440,27.0840,-27.6950,32.1100
0.0210,0.2760,0.2300,0.9400,0.2750,28.4120,-34.1220,32.1500
0.0214,0.1040,0.3500,1.1290,-37.0230,23.2060,-29.2060,32.2000
0.0216,0.1970,0.3210,0.9390,-19.6180,11.6790,-37.2210,32.1500
0.0219,0.1220,0.2030,0.9350,-11.1300,24.7790,-38.2600,32.2000
0.0222,0.1150,0.2020,0.9650,-9.8170,26.3050,-34.4120,32.2000
0.0225,0.0940,0.1680,1.0170,-9.2060,23.1150,-29.5880,32.1500
0.0227,0.1260,0.1550,1.0300,-5.6030,27.3740,-25.2980,32.1100
0.0230,0.2100,0.2090,0.9130,-13.3890,39.6180,-24.7180,32.2500
0.0233,0.1970,0.2030,0.9940,-15.2980,29.1760,-29.3740,32.2000
0.0236,0.2400,0.2040,0.9730,-17.2060,25.9390,-34.0760,32.1500
0.0238,0.2430,0.2020,1.0060,-13.8020,18.0000,-40.1830,32.2000
0.0241,0.1670,0.1280,1.0050,-17.8630,13.0840,-45.0380,32.1500
0.0244,0.2100,0.1880,0.9490,-25.8930,23.8170,-47.0380,32.2000
0.0247,0.0980,0.1770,1.0550,-26.7020,18.4580,-47.3130,32.2000
0.0249,0.0540,0.1500,1.0800,-26.2600,21.3740,-42.0760,32.1500
0.0252,0.0260,0.0620,1.1130,-20.3820,15.2370,-37.5730,32.2900
0.0255,0.1040,0.0570,1.0970,-26.8700,22.1830,-30.3970,32.1500
0.0257,0.1520,0.1310,1.1340,-29.5880,22.7020,-26.2290,32.1100
0.0260,0.2190,0.1490,1.2040,-28.0760,31.5880,-28.2750,32.0600
0.0263,0.2360,0.1790,1.1720,-23.1600,23.0690,-30.3970,32.2900
0.0266,0.1750,0.2320,1.1350,-34.6560,21.6640,-33.8630,32.2000
0.0268,0.1520,0.2480,1.1480,-46.8700,4.8090,-35.9690,32.1500
0.0271,0.1040,0.2170,1.1510,-48.0920,0.2290,-37.0380,32.1500
0.0274,0.2120,0.1830,1.1000,-47.4350,3.0230,-35.3890,32.1500
0.0278,0.2970,0.1650,1.1310,-50.2290,10.8240,-33.6790,32.1100
0.0281,0.3280,0.1520,1.1780,-47.4200,24.8090,-33.4200,32.1500
0.0283,0.3150,0.1190,1.2570,-45.8320,30.9160,-33.0230,32.2000
0.0285,0.3300,0.1060,1.3240,-44.1680,31.8630,-36.1830,32.2500
0.0288,0.2720,0.0860,1.3650,-38.0000,26.6870,-40.5040,32.1500
0.0290,0.1770,0.0670,1.3120,-34.4730,19.4200,-41.4350,32.1500
0.0293,0.1130,0.0580,1.2840,-35.7100,11.4660,-38.5500,32.1500
0.0295,0.1040,0.0810,1.3360,-36.5040,9.2370,-30.5040,32.2000
0.0297,0.2460,0.0390,1.2440,-34.3820,4.0920,-29.6340,32.1500
0.0300,0.3020,0.0060,1.1960,-33.4960,11.3280,-31.1150,32.1100
0.0302,0.2860,0.0310,1.2170,-37.2670,5.6180,-33.4200,32.1500
0.0303,0.2380,0.0200,1.2780,-33.8470,10.4430,-35.5420,32.1500
0.0304,0.1920,0.0310,1.2780,-28.8090,8.7790,-33.9540,32.1500
0.0306,0.2950,0.0420,1.2290,-33.5880,16.6260,-32.7020,32.1500
0.0307,0.3570,0.0130,1.3220,-31.4660,16.8700,-36.7330,32.2900
0.0308,0.3470,0.0100,1.3360,-28.5500,26.3210,-39.8470,32.1500
0.0310,0.2710,-0.0150,1.2560,-26.0150,27.0990,-41.2670,32.2000
0.0311,0.2680,0.0030,1.2880,-28.0610,26.8700,-42.1680,32.1500
0.0313,0.2360,-0.0010,1.2910,-26.0920,22.5800,-42.3660,32.2000
0.0315,0.2010,-0.0080,1.3010,-23.6030,21.4810,-41.7560,32.1500
0.0318,0.2280,-0.0330,1.2900,-20.0460,22.1370,-39.8320,32.1500
0.0320,0.2250,0.0130,1.3030,-17.1600,23.8320,-41.3740,32.2000
0.0323,0.2270,0.0320,1.2420,-17.0380,21.3130,-42.9620,32.1500
0.0325,0.1890,0.0380,1.1680,-16.5950,20.0000,-44.7480,32.2000
0.0327,0.1690,0.0530,1.2100,-12.7940,9.3590,-45.4050,32.2500
0.0330,0.1680,0.0530,1.1200,-10.9010,9.9240,-44.3210,32.1100
0.0332,0.1710,0.1000,1.0290,-17.3280,-2.9770,-41.4350,32.1500
0.0335,0.2140,0.0740,1.0180,-19.6180,-6.5500,-42.4270,32.3400
0.0337,0.2220,0.0910,1.0030,-24.5190,-7.1150,-41.3590,32.2000
0.0339,0.2790,0.0990,1.0130,-31.0690,-12.6720,-44.4890,32.0600
0.0341,0.3160,0.1020,1.0630,-33.2060,-9.8320,-48.4270,32.2000
0.0343,0.2980,0.0810,1.1400,-34.2600,9.6180,-49.2210,32.1500
0.0345,0.2410,0.0320,1.1320,-32.9310,23.7710,-47.2670,32.1100
0.0348,0.1380,-0.0300,1.1530,-32.2600,11.0530,-43.6180,32.1500
0.0350,0.2780,-0.0120,1.2260,-28.9920,16.5340,-41.1300,32.1100
0.0352,0.2690,-0.0770,1.1910,-23.3890,16.0000,-42.1370,32.2000
0.0354,0.2100,-0.0860,1.1630,-29.4660,4.3970,-40.6110,32.1500
0.0357,0.4240,-0.1000,1.2450,-41.3280,-12.6560,-50.9920,32.2000
0.0359,0.4500,-0.1400,1.3030,-29.5270,11.2520,-57.9540,32.1500
0.0361,0.3060,-0.1160,1.2050,-17.1600,31.5570,-58.4120,32.2000
0.0363,0.2040,-0.0970,1.1130,-34.5500,30.1980,-57.7100,32.0600
0.0366,0.2150,-0.0920,1.0710,-46.1530,33.0530,-56.8090,32.2000
0.0369,0.2090,-0.1170,1.0800,-42.7480,28.8400,-56.2750,32.2000
0.0371,0.2190,-0.1670,1.1950,-33.9390,21.0380,-58.9010,32.1500
0.0374,0.1410,-0.2200,1.1700,-27.9690,27.9540,-57.7100,32.2900
0.0376,0.1070,-0.1880,1.1230,-34.5650,27.3280,-53.3130,32.1500
0.0378,0.2850,-0.1840,1.1460,-36.8550,30.0920,-51.0230,32.1100
0.0381,0.4050,-0.1840,1.1620,-30.6560,39.2980,-53.7860,32.0600
0.0383,0.3550,-0.1490,1.1650,-27.3280,45.9240,-58.0150,32.2000
0.0385,0.2630,-0.1530,1.1780,-21.3740,41.6950,-61.1910,32.1500
0.0387,0.2000,-0.1410,1.1800,-20.0000,42.9770,-61.9850,32.1500
0.0390,0.1130,-0.1690,1.2140,-16.0460,31.8930,-60.8090,32.2000
0.0392,0.2020,-0.1550,1.2490,-14.9470,30.3050,-57.7860,32.1500
0.0394,0.2860,-0.1690,1.2640,-11.2820,36.0310,-57.9850,32.2000
0.0396,0.2300,-0.2280,1.3650,-1.6030,24.7630,-61.2520,32.2500
0.0398,0.3090,-0.1470,1.2730,-2.7940,38.1980,-59.8170,32.1100
0.0400,0.4800,-0.1650,1.3270,-12.4890,64.3050,-67.0080,32.1500
0.0402,0.0250,-0.0120,1.6660,22.9770,-50.4430,-61.9240,32.1100
0.0404,0.3880,-0.1430,1.2200,3.1760,47.8470,-73.6180,32.1100
0.0406,0.1170,-0.1660,1.3270,-13.9390,34.9470,-69.5110,32.2500
0.0408,0.0920,-0.1560,1.1340,-3.3280,15.9690,-69.1600,32.2000
0.0410,0.0310,-0.1270,1.2390,-0.9010,24.6560,-60.8850,32.0600
0.0412,0.1440,-0.1250,1.2150,-4.6560,20.5800,-54.6260,32.2000
0.0414,0.2630,-0.1850,1.1470,-4.6720,36.1220,-56.8550,32.1500
0.0416,0.2540,-0.1300,1.1930,-15.4050,33.7400,-54.8550,32.1100
0.0418,0.2640,-0.1660,1.2720,-19.9540,33.6180,-56.3210,32.1100
0.0420,0.1910,-0.2100,1.2990,-16.4580,33.2820,-58.5190,32.1500
0.0422,0.1990,-0.1990,1.3440,-13.1450,30.4120,-59.6340,32.2000
0.0424,0.1890,-0.1930,1.3170,-6.3820,40.3050,-57.6490,32.2500
0.0426,0.1140,-0.1670,1.2770,-4.5340,32.2900,-54.1370,32.2000
0.0428,0.1320,-0.1460,1.2110,-4.1370,31.0690,-49.9540,32.1500
0.0430,0.1670,-0.1350,1.2470,-2.6560,25.2370,-48.2600,32.2000
0.0432,0.2700,-0.1580,1.2470,0.3820,27.1760,-48.1530,32.1500
0.0434,0.3280,-0.1390,1.2330,5.7250,22.9470,-49.0080,32.1500
0.0436,0.2040,-0.1490,1.2370,4.3510,29.4660,-48.6560,32.2000
0.0438,0.1500,-0.1300,1.2270,3.1150,24.3360,-45.6790,32.1500
0.0440,0.1470,-0.1130,1.2140,0.5950,31.6030,-38.8090,32.2000
0.0442,0.2870,-0.1140,1.2350,-0.3510,37.4050,-36.2140,32.1500
0.0444,0.3610,-0.1210,1.3000,3.8170,40.2900,-41.0840,32.2000
0.0446,0.2740,-0.1120,1.2350,9.0990,35.2980,-48.1530,32.1500
0.0448,0.1580,-0.0940,1.1940,11.3740,27.8170,-50.1220,32.1100
0.0452,0.1880,-0.0810,1.1870,8.3970,27.8470,-47.2370,32.1100
0.0453,0.2500,-0.0590,1.1770,5.1300,31.0530,-47.3130,32.1500
0.0455,0.0300,-0.1260,1.0970,0.1980,20.0760,-44.0920,32.1500
0.0457,0.0330,-0.1090,1.1040,-3.7250,19.0080,-43.3590,32.2000
0.0458,0.0540,-0.1050,1.1080,-5.9080,20.1220,-42.8850,32.1500
0.0460,0.0410,-0.1190,1.1090,-7.7860,19.2980,-42.6110,32.2000
0.0462,0.0400,-0.1270,1.1420,-9.6640,18.4270,-41.8470,32.1500
0.0489,0.0390,-0.1290,1.1610,-9.6340,19.2060,-41.4810,32.2900
0.0612,0.0480,-0.1450,1.1750,-8.7330,18.3820,-41.3740,32.1500
0.0681,0.0520,-0.1630,1.2190,-6.8550,15.6640,-42.6260,32.1500
0.0805,0.0820,-0.1810,1.2670,-2.7940,19.0380,-44.3050,32.2000
0.0871,0.0570,-0.1820,1.2610,0.8550,20.4580,-44.0760,32.2500
0.0997,0.0450,-0.1660,1.2220,1.5880,23.5110,-42.9470,32.2000
0.1067,0.0400,-0.1460,1.2010,0.3360,22.9770,-41.9080,32.1500
0.1189,0.0610,-0.1150,1.1990,-2.3210,25.1910,-41.2210,32.2000
0.1312,0.0680,-0.1050,1.1930,-4.7630,24.5190,-40.6260,32.1500
0.1382,0.0590,-0.0840,1.1910,-8.0920,25.1600,-40.4890,32.2000
0.1505,0.0480,-0.1120,1.2650,-8.9920,21.7100,-40.7940,32.2000
0.1571,0.0780,-0.1380,1.3430,-4.0920,18.7330,-42.5500,32.1500
0.1696,0.0680,-0.1520,1.3570,2.5340,17.5730,-44.5190,32.2500
0.1766,0.0580,-0.1490,1.3230,6.6260,17.9850,-45.8320,32.1500
0.1890,0.0580,-0.1350,1.2910,6.5190,21.2060,-46.0920,32.2000
0.2014,0.0850,-0.1350,1.2480,8.5040,23.3440,-47.1760,32.2500
0.2084,0.0540,-0.1410,1.2160,6.4270,25.7560,-47.9540,32.2000
0.2207,-0.0020,-0.1640,1.2590,4.6560,22.3510,-47.9850,32.2500
0.2276,-0.0310,-0.1720,1.2670,5.7100,20.9160,-46.2600,32.1500
0.2400,-0.0370,-0.1650,1.2420,5.9240,20.6870,-43.3890,32.1500
0.2472,-0.0380,-0.1490,1.2360,5.9850,21.5270,-40.1830,32.2500
0.2592,-0.0540,-0.2160,1.2670,0.7330,43.9540,-38.4730,32.2900
0.2713,-0.0180,-0.1350,1.4190,8.5040,12.1220,-33.7560,32.1500
0.2788,0.0640,-0.1400,1.2750,14.1070,23.8630,-32.1070,32.2900
0.2904,0.0710,-0.1380,1.2240,10.7940,19.8630,-32.5800,32.2500
0.2974,0.1090,-0.1520,1.2360,11.1600,16.0610,-38.5650,32.1500
0.3096,0.0440,-0.1200,1.3300,8.3660,7.8020,-40.7330,32.1500
0.3171,0.0630,-0.1210,1.2850,11.0230,11.6180,-44.3360,32.2500
0.3291,0.0450,-0.1260,1.2070,12.0310,6.9920,-44.9310,32.1100
0.3415,0.0130,-0.1280,1.0680,8.2440,17.9850,-42.7330,32.2500
0.3485,-0.0030,-0.1150,1.0810,4.0000,11.5270,-38.4120,32.2000
0.3607,-0.0360,-0.1130,1.2110,-1.5570,9.0530,-33.2060,32.2500
0.3676,-0.0050,-0.1140,1.1970,0.1980,3.5880,-32.1070,32.2000
0.3798,0.0110,-0.0650,1.1480,-3.2520,3.5570,-28.3510,32.1500
0.3870,0.0680,-0.0010,1.1490,-9.2210,7.3590,-26.5650,32.1500
0.3992,0.0290,-0.0780,1.1700,-12.0000,6.2290,-27.0230,32.2000
0.4114,0.1130,-0.1110,1.3020,-4.5190,7.8930,-28.4890,32.2500
0.4184,0.2130,-0.1160,1.3500,4.6260,13.8020,-33.9240,32.2000
0.4307,0.2060,-0.1570,1.3030,15.9390,12.8550,-43.8630,32.1500
0.4376,0.1300,-0.1430,1.2240,18.3510,12.1070,-49.3280,32.2000
0.4499,0.0540,-0.1200,1.1910,18.1070,8.9770,-50.1530,32.1500
0.4571,0.0250,-0.1040,1.1390,15.8780,6.5650,-46.1220,32.1500
0.4692,0.0390,-0.1060,1.1130,13.2520,8.8700,-41.7710,32.2000
0.4754,0.0340,-0.1120,1.1250,8.9920,11.8780,-37.0840,32.2500
0.4888,0.0230,-0.1100,1.1430,7.8780,15.3440,-32.0310,32.2000
0.5009,0.0160,-0.1050,1.1340,6.8240,9.6640,-29.0530,32.1500
0.5080,0.0870,-0.1090,1.1440,7.6640,20.5800,-28.5650,32.1100
0.5204,0.1170,-0.1030,1.1200,9.1300,19.3440,-30.9470,32.1500
0.5273,0.1130,-0.0960,1.1630,12.5950,20.2750,-36.6110,32.1100
0.5396,0.1130,-0.0830,1.0840,13.9850,11.9690,-41.3280,32.2000
0.5463,0.0890,-0.0620,1.0500,10.8700,8.8850,-43.7860,32.0600
0.5591,0.0990,-0.0300,1.0160,6.4270,6.6260,-44.4120,32.2000
0.5713,0.0550,-0.0090,1.0020,0.1070,13.6490,-40.4730,32.1500
0.5782,0.0480,-0.0610,1.1180,2.6110,4.5340,-37.2060,32.2000
0.5907,0.0690,-0.0760,1.0770,2.3510,21.5110,-31.5420,32.2500
0.5979,0.0600,-0.0880,1.0710,1.1600,22.3210,-27.7250,32.2000
0.6100,0.1260,-0.0980,1.0710,-1.2820,30.6110,-27.0530,32.2000
0.6171,0.1310,-0.1120,1.0930,0.4580,28.9160,-31.5270,32.1500
0.6292,0.1210,-0.1040,1.1290,2.0000,28.6410,-36.6870,32.2000
0.6353,0.0960,-0.1120,1.1310,5.5570,27.5570,-41.1150,32.1500
0.6488,0.0580,-0.1020,1.1050,7.5880,26.4890,-43.6490,32.2000
0.6609,0.0040,-0.0860,1.0900,7.6030,20.9310,-42.7480,32.1500
0.6681,0.0030,-0.0780,1.0990,7.5730,17.7710,-40.3210,32.1100
0.6802,0.0120,-0.0790,1.0940,7.2670,15.7710,-37.0690,32.1500
0.6874,0.0620,-0.1030,1.1100,6.0150,17.9080,-35.1910,32.1500
0.6997,0.1470,-0.0800,1.1440,8.3360,23.3440,-37.0690,32.2000
0.7069,0.1010,-0.0730,1.1500,9.1910,26.1980,-40.4580,32.2500
0.7190,0.0850,-0.0550,1.0970,6.2290,25.5570,-42.8400,32.2000
0.7312,0.0680,-0.0410,1.0870,3.2980,23.2060,-43.5880,32.1500
0.7384,0.0840,-0.0510,1.1330,3.2060,17.2060,-43.5420,32.2000
0.7506,0.1080,-0.0670,1.1770,2.1830,22.9160,-41.9540,32.1500
0.7578,0.0920,-0.0740,1.1880,1.9390,29.0380,-40.6870,32.2000
0.7700,0.0720,-0.0620,1.1990,1.8170,28.8400,-40.1680,32.2000
0.7769,0.0730,-0.0560,1.1950,3.4350,30.1980,-39.7250,32.0600
0.7890,0.0790,-0.0540,1.1880,3.5880,31.1450,-38.8850,32.2000
0.7948,0.0920,-0.0720,1.1820,4.0310,32.3820,-39.7400,32.1500
0.8088,0.1070,-0.0800,1.1770,3.5420,28.3050,-41.9850,32.2000
0.8210,0.1190,-0.0750,1.1900,2.3660,27.5270,-44.7020,32.1500
0.8281,0.0980,-0.0820,1.1900,3.1600,26.0150,-46.7790,32.2000
0.8402,0.0580,-0.0770,1.1660,2.1370,25.4810,-46.6410,32.1500
0.8474,0.0510,-0.0560,1.1640,0.3050,25.4200,-45.3890,32.2900
0.8598,0.0760,-0.0470,1.1860,-0.7790,24.9010,-44.3970,32.2000
0.8666,0.1290,-0.0620,1.2710,2.6720,26.3360,-44.7630,32.2500
0.8791,0.1280,-0.0720,1.2490,6.1070,33.7400,-45.6490,32.1500
0.8912,0.0850,-0.0600,1.2150,6.6260,32.4890,-46.8550,32.1500
0.8983,0.0850,-0.0480,1.2190,7.0690,31.7250,-48.5340,32.2000
0.9104,0.0760,-0.0350,1.2070,7.8320,27.2820,-50.1680,32.1500
0.9177,0.0860,-0.0200,1.1750,6.5340,24.7480,-51.1150,32.2000
0.9300,0.0700,-0.0220,1.1880,4.7630,24.2440,-50.9310,32.1500
0.9372,0.0460,-0.0340,1.1960,3.8930,25.7710,-48.7180,32.2500
0.9491,0.0110,-0.0250,1.1620,2.0150,27.8320,-46.0150,32.1500
0.9612,0.0050,-0.0370,1.1870,1.2520,25.2820,-43.3740,32.1500
0.9685,0.0240,-0.0570,1.1880,2.4270,25.2210,-41.8930,32.1100
0.9809,0.0310,-0.0540,1.1940,3.4050,21.9390,-41.1760,32.2500
0.9881,0.0580,-0.0550,1.1970,4.2440,22.0460,-41.5880,32.2000
1.0002,0.0290,-0.0480,1.2030,5.9850,20.8700,-42.1530,32.0600
1.0070,-0.0040,-0.0350,1.1430,5.8020,18.8550,-42.1680,32.1500
1.0193,0.0150,-0.0170,1.1250,1.7860,14.1220,-42.3970,32.2500
1.0261,0.0340,-0.0140,1.1420,0.4430,11.4200,-42.8850,32.1500
1.0384,0.0590,-0.0300,1.2100,3.4960,14.4730,-43.2820,32.2000
1.0509,0.0760,-0.0560,1.2230,6.8090,16.1830,-43.9540,32.1500
1.0579,0.0720,-0.0530,1.2000,7.5880,19.6790,-44.9010,32.2000
1.0701,0.0340,-0.0440,1.2070,9.7560,16.5190,-46.6720,32.1500
1.0772,0.0250,-0.0310,1.1990,9.3130,11.8320,-48.4890,32.2000
1.0895,0.0250,-0.0060,1.1670,12.5190,8.0150,-50.0310,32.2500
1.0965,0.0120,0.0090,1.1630,11.2520,4.5040,-50.6870,32.1500
1.1090,0.0440,0.0080,1.1330,9.3280,3.6490,-50.1220,32.2000
1.1162,0.0530,-0.0000,1.1610,8.5040,1.8020,-50.0000,32.2500
1.1283,0.0390,0.0040,1.1240,8.0460,4.1530,-48.4580,32.2000
1.1410,0.0070,0.0030,1.1010,3.4050,11.1600,-44.8240,32.1500
1.1482,0.0040,0.0020,1.1320,1.0230,19.0530,-40.6260,32.2000
1.1606,-0.0100,-0.0040,1.1680,-2.7180,24.9620,-37.0080,32.1500
1.1675,0.0260,0.0040,1.1480,-0.7790,22.8090,-34.3050,32.2000
1.1798,0.0790,0.0040,1.1830,-0.1220,29.4200,-35.2370,32.2500
1.1867,0.0690,0.0010,1.1750,0.1070,29.1300,-36.7180,32.1100
1.1994,0.1390,0.0120,1.0600,-2.7480,37.1600,-41.3130,32.2000
1.2064,0.0530,0.0150,1.2660,-2.0460,8.9160,-43.9540,32.0600
1.2186,0.1250,-0.0340,1.2730,6.7940,-0.0150,-48.5800,32.2900
1.2312,0.1400,-0.0690,1.2960,13.9240,23.6180,-50.8850,32.1500
1.2381,0.0180,-0.0610,1.1850,13.7560,13.6180,-51.0380,32.1100
1.2502,0.0010,-0.0560,1.1870,9.4050,20.0920,-46.5340,32.1500
1.2573,0.0380,-0.0490,1.2020,10.1370,18.6560,-43.1760,32.1100
1.2694,0.0490,-0.0420,1.1810,10.3970,20.0150,-41.5110,32.3400
1.2764,-0.0100,-0.0590,1.1300,10.7330,19.5570,-40.0000,32.2500
1.2886,0.0070,-0.0140,1.1390,6.0760,14.4430,-37.5570,32.1100
1.3008,0.0750,-0.0040,1.1460,5.3130,17.2520,-35.9240,32.0600
1.3078,0.1060,0.0100,1.1600,5.1910,15.6030,-37.7710,32.1500
1.3205,0.0830,0.0120,1.1630,5.2820,17.0380,-39.0080,32.2500
1.3274,0.0830,0.0250,1.1640,5.3280,20.1070,-38.9620,32.2000
1.3398,0.1020,0.0210,1.1660,5.5270,23.5420,-39.8470,32.2500
1.3471,0.0980,0.0200,1.1870,6.0610,25.8470,-40.6720,32.1100
1.3596,0.0860,0.0200,1.1780,8.0460,25.2670,-41.3280,32.2500
1.3666,0.0810,0.0240,1.1730,8.6560,27.9690,-40.9010,32.3400
1.3788,0.0750,0.0290,1.1940,9.4200,25.9080,-39.4810,32.2500
1.3911,0.1140,0.0410,1.1860,10.0000,28.6260,-38.1530,32.2500
1.3982,0.1250,0.0440,1.1570,9.6490,30.7330,-38.4270,32.2000
1.4107,0.1140,0.0550,1.1260,6.9470,31.0690,-39.0990,32.0600
1.4178,0.1200,0.0730,1.1160,3.7400,29.1760,-40.5190,32.2000
1.4301,0.1100,0.0780,1.1250,2.2600,26.7940,-42.3050,32.2500
1.4371,0.1350,0.0540,1.1510,0.6560,28.5500,-43.4200,32.2000
1.4497,0.1140,0.0410,1.1610,0.8700,31.7710,-44.5340,32.1500
1.4569,0.0450,0.0440,1.1450,-0.7940,31.0230,-44.2900,32.1500
1.4692,0.0140,0.0370,1.2080,0.4120,24.1370,-43.0840,32.1100
1.4813,0.0210,0.0350,1.1840,3.3440,23.9540,-42.0760,32.1500
1.4888,0.0030,0.0610,1.1280,2.4890,23.7860,-41.3740,32.1100
1.5008,-0.0010,0.0800,1.0840,-1.6790,21.3740,-41.6490,32.2500
1.5082,-0.0050,0.0810,1.1080,-4.2900,16.8240,-40.9620,32.1100
1.5203,0.0200,0.0740,1.1300,-4.7480,14.6720,-40.2900,32.2500
1.5273,0.0200,0.0640,1.1070,-8.4580,13.1760,-38.5800,32.2000
1.5393,0.0790,0.0500,1.1600,-11.8930,11.7710,-38.1980,32.2500
1.5466,0.1140,0.0200,1.2460,-8.2600,15.9390,-40.1530,32.2500
1.5588,0.1160,-0.0140,1.3050,-1.6030,20.7940,-42.1370,32.2000
1.5708,0.0850,-0.0210,1.2620,2.6110,22.6110,-44.7480,32.1500
1.5781,0.0420,-0.0100,1.2450,3.8020,18.7020,-46.5190,32.1100
1.5904,0.0310,0.0120,1.2010,3.4350,12.8850,-47.3440,32.1500
1.5976,0.0410,0.0140,1.1700,1.0380,7.7710,-47.6640,32.2000
1.6099,0.0250,0.0220,1.1530,-2.3210,4.5340,-46.2750,32.1500
1.6171,0.0200,0.0280,1.1450,-5.4050,6.0000,-42.5650,32.2000
1.6294,0.0190,0.0220,1.1210,-8.9470,6.4120,-38.3660,32.1500
1.6367,0.0060,0.0620,1.1160,-16.2140,-1.2670,-34.4890,32.2900
1.6488,0.1010,0.0030,1.2290,-13.4500,5.6640,-35.3440,32.2000
1.6612,0.1490,-0.0530,1.2780,-3.7250,-0.0760,-38.7480,32.1500
1.6680,0.1310,-0.0390,1.2710,2.3360,11.5880,-38.7630,32.1500
1.6804,0.1140,-0.0480,1.2490,6.7630,18.1070,-38.2600,32.2500
1.6876,0.1550,-0.0040,1.2100,9.4660,19.7860,-37.5420,32.1100
1.6998,0.1490,0.0260,1.1670,7.2670,19.0080,-38.0760,32.0600
1.7069,0.1700,0.0520,1.1370,5.2980,25.8630,-40.5340,32.2000
1.7192,0.1570,0.0680,1.1120,3.1760,19.9850,-44.6110,32.1500
1.7249,0.1130,0.0860,1.1070,0.5040,18.0460,-47.1300,32.2000
1.7388,0.1190,0.0730,1.1460,0.1980,9.8470,-48.0610,32.1500
1.7511,0.1570,0.0530,1.1700,1.8320,14.0000,-49.5570,32.1500
1.7581,0.1020,0.0260,1.1960,4.2900,17.7100,-48.9770,32.2000
1.7706,0.0910,0.0040,1.1940,3.8780,21.7560,-47.0230,32.1500
1.7778,0.0740,0.0000,1.2320,5.8470,22.2290,-46.3970,32.2000
1.7901,0.0710,0.0120,1.2130,3.6790,25.8320,-44.3360,32.1500
1.7974,0.0860,-0.0090,1.1560,5.4500,20.1530,-43.8470,32.1100
1.8097,0.1510,0.0390,1.1540,1.4050,23.7860,-44.9920,32.2500
1.8170,0.1340,0.0450,1.1570,0.2290,22.3660,-49.0990,32.2000
1.8293,0.0870,0.0470,1.1190,-1.2370,17.5270,-52.2440,32.1500
1.8414,0.0610,0.0640,1.0910,-3.4350,8.4730,-53.8470,32.2500
1.8485,0.0690,0.0400,1.1660,-2.3510,2.3660,-53.1910,32.2000
1.8608,0.1120,-0.0150,1.1970,1.1910,7.3740,-51.4500,32.2500
1.8681,0.1080,-0.0930,1.1630,-0.3660,19.6180,-46.1980,32.2000
1.8802,0.0090,-0.0430,1.2480,0.3050,19.3740,-44.0000,32.1500
1.8875,0.0380,-0.0320,1.2220,2.2290,26.3970,-41.6790,32.2000
1.8998,0.0290,-0.0240,1.1870,3.5110,26.1530,-41.1300,32.1500
1.9070,0.0560,0.0230,1.1820,-2.2600,20.6410,-41.4050,32.2000
1.9191,0.0490,0.0400,1.1120,1.7100,17.6640,-43.0530,32.1500
1.9313,0.0820,0.0640,1.0560,-2.9620,20.7330,-43.3440,32.2000
1.9386,0.0670,0.0790,1.0540,-9.6180,18.6110,-42.5040,32.2900
1.9507,0.1010,0.0690,1.1550,-8.8700,11.6030,-42.2290,32.1500
1.9579,0.1520,0.0510,1.1980,-3.7860,14.7790,-43.0840,32.2500
1.9698,0.1230,0.0290,1.1600,-3.7250,26.8550,-43.7710,32.1500
1.9771,0.0710,0.0590,1.2140,-7.3130,25.2980,-43.6340,32.2000
1.9894,0.1040,0.0540,1.2000,-0.9010,16.0610,-46.4580,32.2500
1.9968,0.1220,0.0540,1.1480,1.5570,19.3590,-48.2750,32.2000
2.0088,0.1530,0.0480,1.1520,0.9310,16.2290,-51.5110,32.2500
2.0211,0.1350,0.0470,1.1880,3.8780,11.0080,-54.6260,32.2000
2.0284,0.1010,0.0450,1.1730,7.6180,13.8170,-55.6030,32.2500
2.0407,0.0340,0.0760,1.0980,4.6720,11.2370,-54.2140,32.2500
2.0479,0.0780,0.0770,1.1350,1.0990,14.0760,-51.3130,32.2900
2.0602,0.0790,0.0760,1.1520,1.7250,19.0080,-48.7020,32.2500
2.0673,0.0900,0.0750,1.0920,-1.5270,25.2210,-45.2520,32.2900
2.0798,0.1130,0.0740,1.1250,-5.9240,26.4580,-44.2900,32.2500
2.0870,0.1400,0.0510,1.1880,-3.2670,25.2210,-46.1370,32.1100
2.0990,0.0930,0.0340,1.1990,-0.2600,23.4350,-48.1530,32.1500
2.1111,0.0770,0.0390,1.2000,1.1150,18.9770,-48.6870,32.2000
2.1186,0.0930,0.0120,1.1940,2.6870,18.4120,-49.6030,32.2900
2.1307,0.1190,0.0100,1.2010,3.6640,20.9470,-50.2440,32.2500
2.1381,0.1030,0.0140,1.2050,4.5800,26.4430,-50.0000,32.1100
2.1502,0.0670,0.0220,1.2020,4.5500,28.3210,-49.7710,32.1500
2.1576,0.0290,0.0320,1.1750,3.7710,22.4580,-48.1070,32.1100
2.1698,0.0390,0.0390,1.1740,1.2520,20.7180,-46.3660,32.1500
2.1771,0.0530,0.0480,1.1870,0.9770,18.5040,-45.2210,32.2000
2.1892,0.0620,0.0380,1.2070,0.5190,15.8780,-43.8020,32.1500
2.1967,0.0760,0.0160,1.2620,3.1150,13.6790,-42.2140,32.2000
2.2088,0.1250,0.0140,1.2780,5.9690,20.2750,-42.3970,32.1500
2.2212,0.0970,0.0270,1.2740,7.8630,16.9920,-44.0000,32.1500
2.2283,0.1140,0.0320,1.2550,10.3820,16.8400,-46.7020,32.2000
2.2407,0.0730,0.0460,1.2270,12.9470,13.8020,-48.7180,32.2500
2.2478,0.0780,0.0620,1.1610,10.2140,11.2370,-47.0690,32.2900
2.2600,0.1300,0.0600,1.2060,7.4960,14.0920,-45.1450,32.0600
2.2671,0.1710,0.0530,1.2420,9.1300,24.2290,-44.3360,32.2000
2.2793,0.0800,0.0540,1.2260,10.0920,25.7250,-43.5110,32.1500
2.2868,0.0800,0.0570,1.1850,7.9690,24.1680,-43.4960,32.2900
2.2989,0.0900,0.0460,1.1650,9.0990,23.4050,-46.1830,32.1500
2.3111,0.1050,0.0880,1.2610,10.2440,10.3970,-46.5190,32.2500
2.3183,0.1670,0.0710,1.2490,14.6260,19.5110,-49.2210,32.1500
2.3307,0.0590,0.0830,1.1910,15.1910,20.0920,-50.0460,32.2500
2.3380,-0.0570,0.0840,1.1240,13.5270,14.9010,-47.6340,32.2900
2.3499,0.0480,0.0950,1.1210,9.6030,14.7020,-44.1530,32.2500
2.3571,0.1050,0.0970,1.1620,7.2370,17.1910,-42.5650,32.2000
2.3696,0.1110,0.0820,1.1730,5.8930,18.1830,-42.4430,32.1500
2.3765,0.0970,0.0790,1.1670,4.9620,19.5570,-42.6260,32.2000
2.3888,0.1000,0.0830,1.1790,5.7710,17.1300,-43.9690,32.2500
2.4011,0.1170,0.1490,1.1570,3.9850,22.0460,-44.3820,32.2000
2.4085,0.1390,0.0770,1.2320,9.9240,5.3130,-49.1910,32.2000
2.4209,0.1630,0.0590,1.2250,13.7710,19.7250,-49.7860,32.1500
2.4280,0.1070,0.0660,1.1830,15.9240,14.8090,-49.8020,32.1100
2.4402,0.1420,0.0820,1.1250,13.1450,17.6340,-49.9540,32.1500
2.4472,0.1430,0.0860,1.1420,13.5420,15.8930,-52.2440,32.2000
2.4594,0.1550,0.0810,1.1270,13.4960,14.8700,-56.0000,32.1500
2.4664,0.1340,0.0910,1.1300,14.8550,11.0530,-62.1980,32.2000
2.4791,0.1080,0.1090,1.1210,15.5420,7.3130,-66.3050,32.2500
2.4912,0.0960,0.1300,1.0920,14.0310,6.3360,-67.4810,32.1100
2.4985,0.0770,0.1530,1.0130,10.3050,14.3360,-65.5570,32.2900
2.5107,-0.0440,0.1780,1.0620,7.2820,7.7100,-57.6030,32.2500
2.5179,-0.0340,0.1860,1.0160,1.6950,13.8470,-46.8240,32.2900
2.5302,0.0910,0.1490,0.9220,-3.1300,25.2370,-38.9310,32.2500
2.5376,0.0550,0.1180,1.2600,4.7630,12.0310,-33.6640,32.2000
2.5494,0.1720,0.1020,1.1880,10.7630,27.2820,-32.3660,32.2500
2.5563,0.1860,0.1050,1.1560,9.5420,27.5420,-36.7020,32.2000
2.5689,0.2470,0.1110,1.1300,6.7940,19.4810,-45.5730,32.1500
2.5813,0.1910,0.1190,1.1480,7.8780,14.7790,-53.2210,32.1500
2.5886,0.1650,0.1280,1.1320,5.9390,14.2900,-56.7330,32.2000
2.6009,0.0940,0.1480,1.0970,0.2900,14.3820,-55.1600,32.1500
2.6081,0.0400,0.1540,1.0660,-4.2290,15.3280,-49.4500,32.2000
2.6202,0.0640,0.1570,1.0770,-8.3510,13.2670,-43.6490,32.1500
2.6274,0.1300,0.1330,1.1490,-8.2140,11.7560,-40.5950,32.1100
2.6398,0.1580,0.1100,1.2210,-2.9620,13.6790,-40.8090,32.2500
2.6470,0.2080,0.1020,1.2070,-0.4120,24.3360,-42.9920,32.2000
2.6590,0.1850,0.0980,1.2300,3.1910,29.1450,-47.3440,32.2000
2.6714,0.1230,0.1090,1.1910,6.4430,23.8020,-51.6790,32.1500
2.6785,0.1080,0.1220,1.1480,5.9850,16.7330,-53.2210,32.2500
2.6909,0.1080,0.1300,1.1620,5.8170,14.4120,-51.5880,32.2500
2.6981,0.1250,0.1560,1.1430,5.2820,18.9620,-48.7330,32.2000
2.7106,0.0740,0.1780,1.1080,2.1680,21.3440,-44.2750,32.2500
2.7176,0.0830,0.1790,1.1350,0.6260,20.8090,-39.7560,32.2000
2.7300,0.1190,0.1740,1.1200,-0.2900,21.4500,-38.0150,32.1500
2.7371,0.1460,0.1710,1.1300,-1.5420,20.0920,-39.0530,32.1500
2.7493,0.1350,0.1700,1.1550,-1.7860,16.7790,-41.0080,32.1500
2.7614,0.1600,0.1670,1.1550,-2.1070,14.9770,-43.3280,32.1500
2.7685,0.1640,0.1650,1.1800,-1.8170,15.5880,-45.2520,32.2000
2.7810,0.1450,0.1530,1.2170,0.7020,14.9310,-46.3360,32.1500
2.7881,0.1520,0.1490,1.2130,3.8780,20.1980,-46.1220,32.2000
2.8005,0.1190,0.1520,1.1780,2.7330,21.9850,-44.5950,32.2500
2.8075,0.1270,0.1620,1.1700,1.5880,16.9310,-42.9310,32.2000
2.8199,0.1620,0.1720,1.1670,1.0690,18.2440,-42.6410,32.1500
2.8271,0.1600,0.1640,1.1630,2.1830,17.9080,-42.6720,32.2500
2.8395,0.1860,0.1510,1.1460,0.1530,21.2520,-43.0690,32.2000
2.8466,0.1670,0.1440,1.1710,0.5500,20.7630,-45.9390,32.1500
2.8590,0.1550,0.1320,1.1710,1.1760,18.7940,-48.2140,32.1100
2.8712,0.1220,0.1280,1.1940,3.5570,18.7020,-49.7400,32.2500
2.8788,0.1140,0.1270,1.1750,4.5500,16.5950,-49.0690,32.2000
2.8907,0.1210,0.1280,1.2320,7.6030,14.0150,-47.5270,32.2500
2.8981,0.1370,0.1100,1.2220,12.2140,20.8700,-45.6340,32.1500
2.9102,0.1030,0.1220,1.1610,11.5570,24.1220,-43.8930,32.2000
2.9174,0.0960,0.1410,1.1210,9.5110,20.8550,-42.5340,32.2500
2.9298,0.1360,0.1560,1.1200,8.5040,19.9240,-41.5880,32.1100
2.9370,0.1650,0.1640,1.1020,8.1220,19.7250,-41.2520,32.1500
2.9492,0.1890,0.1840,1.0680,4.2900,23.2060,-41.1450,32.2900
2.9614,0.1760,0.1850,1.1030,2.3360,23.5270,-42.1980,32.1500
2.9686,0.1800,0.1990,1.1040,0.8090,25.3130,-43.5730,32.1100
2.9809,0.1850,0.1990,1.1330,0.5950,21.7100,-46.2600,32.2000
2.9884,0.1690,0.1990,1.1360,2.0310,24.6410,-48.2900,32.2500
3.0005,0.1000,0.1970,1.1500,4.5950,23.2210,-47.2520,32.2000
3.0079,0.1120,0.1860,1.1130,4.3360,26.6870,-43.9850,32.0600
3.0200,0.1380,0.1590,1.1250,2.9620,29.2370,-42.3970,32.2900
3.0274,0.1400,0.1450,1.1480,3.2370,26.8550,-44.3210,32.1500
3.0394,0.1400,0.1260,1.1420,4.2140,24.3970,-48.0920,32.2000
3.0470,0.1260,0.1380,1.1200,4.1680,22.1220,-52.2290,32.2900
3.0591,0.0900,0.1620,1.1070,2.4120,18.8850,-53.8780,32.1500
3.0714,0.0700,0.1630,1.1100,-0.5500,17.6640,-52.5950,32.2000
3.0786,0.0800,0.1650,1.1270,-3.0230,20.3970,-48.0460,32.2500
3.0907,0.1120,0.1590,1.1450,-4.4120,23.2670,-44.1830,32.2900
3.0978,0.1020,0.1520,1.1880,-3.2210,27.6180,-42.2290,32.2500
3.1102,0.0980,0.1500,1.2160,1.5730,27.4660,-42.1830,32.2000
3.1174,0.1600,0.1420,1.2250,6.6560,26.1830,-44.2600,32.2000
3.1298,0.1830,0.1320,1.1750,9.5570,26.6410,-48.9310,32.2500
3.1371,0.1460,0.1150,1.1090,7.8630,23.2520,-53.6790,32.2000
3.1492,0.0680,0.1100,1.1240,4.9310,20.4580,-54.7630,32.2500
3.1613,0.0070,0.1060,1.1350,5.1760,18.2440,-53.2520,32.2900
3.1689,-0.0470,0.0940,1.1160,5.7710,20.5950,-49.4350,32.2500
3.1809,0.0010,0.1460,1.0660,2.7330,18.1680,-45.8930,32.2000
3.1882,0.0020,0.1770,1.1120,0.0000,18.4430,-41.7710,32.3400
3.2005,0.0320,0.1830,1.1220,-2.4890,17.7860,-38.1680,32.1500
3.2076,0.1080,0.1890,1.1240,-3.4200,19.1300,-35.0840,32.2000
3.2197,0.1400,0.1870,1.1610,-3.8930,19.4960,-33.7250,32.2500
3.2269,0.1510,0.1890,1.1850,-3.6950,23.0840,-35.2210,32.2000
3.2392,0.1340,0.1840,1.2080,-0.3660,25.7710,-36.0920,32.1500
3.2514,0.1700,0.1870,1.2150,2.9160,24.2600,-39.4350,32.2000
3.2585,0.1850,0.1990,1.1790,3.8930,21.6950,-42.9160,32.2500
3.2710,0.2080,0.2090,1.1860,2.8700,19.1300,-45.8170,32.2900
3.2781,0.1960,0.2100,1.2160,4.1530,16.6870,-47.2520,32.2000
3.2904,0.1840,0.2170,1.1630,4.3970,23.6790,-45.6790,32.2500
3.2974,0.1190,0.2320,1.1410,0.6720,23.9540,-43.4350,32.1100
3.3098,0.1470,0.2160,1.1780,1.6490,22.6720,-42.5040,32.1500
3.3171,0.1630,0.1830,1.1990,4.1980,28.5650,-43.3740,32.2000
3.3295,0.1050,0.1680,1.2100,6.5800,29.0990,-45.2670,32.1500
3.3367,0.0910,0.1620,1.1790,6.9160,29.9390,-45.5570,32.1100
3.3490,0.0750,0.1850,1.1470,5.8470,29.6640,-45.6490,32.2900
3.3614,0.0580,0.2020,1.1060,3.5420,25.6340,-45.9850,32.1500
3.3685,0.0570,0.2140,1.1020,1.3440,24.1220,-45.4500,32.2900
3.3809,0.0360,0.2190,1.1250,-0.3820,18.6720,-45.0530,32.2500
3.3880,0.0490,0.2080,1.1360,-0.6720,14.7330,-43.8470,32.2900
3.4001,0.0520,0.2210,1.1420,-0.8550,15.9240,-42.9620,32.1500
3.4073,0.0640,0.2270,1.1190,-1.9240,16.5650,-41.8630,32.2900
3.4193,0.1080,0.2290,1.1320,-3.5570,16.5340,-41.6030,32.2000
3.4266,0.1450,0.2230,1.1740,-1.7560,18.0760,-43.9690,32.2500
3.4390,0.1450,0.1940,1.1980,1.6950,20.4890,-46.2750,32.2000
3.4511,0.1260,0.1930,1.1860,5.0080,22.1220,-47.1760,32.3400
3.4584,0.0990,0.2060,1.1220,5.0530,23.2980,-46.0760,32.2000
3.4708,0.1030,0.2190,1.0790,2.4120,21.9540,-45.6640,32.1500
3.4782,0.0970,0.2210,1.0880,1.0080,15.8320,-46.2140,32.2900
3.4902,0.1000,0.2210,1.0790,-1.1300,13.6490,-46.7480,32.1500
3.4974,0.0850,0.2200,1.1300,-1.5270,11.2210,-46.6560,32.2500
3.5098,0.1050,0.2020,1.1340,-0.7630,15.2060,-45.1300,32.2000
3.5173,0.1060,0.1980,1.1630,0.7180,20.4580,-41.7250,32.2500
3.5293,0.1250,0.2050,1.1720,2.3970,23.6490,-39.5420,32.2000
3.5413,0.1170,0.2070,1.1460,1.2980,23.9540,-39.7250,32.2500
3.5486,0.0980,0.2190,1.1520,0.4730,19.7100,-40.3970,32.2000
3.5609,0.1300,0.2200,1.1550,0.0310,18.0760,-41.4200,32.2500
3.5681,0.1520,0.2210,1.1380,-1.3130,17.5270,-42.0920,32.2000
3.5805,0.1830,0.2220,1.1300,-3.7560,18.0760,-42.7480,32.2000
3.5877,0.1920,0.2240,1.1480,-5.1450,20.4270,-44.0460,32.1500
3.5997,0.1810,0.2130,1.1970,-2.0460,23.7100,-46.5190,32.2000
3.6069,0.1250,0.2110,1.1670,0.0610,22.9470,-47.2980,32.2500
3.6192,0.1200,0.2240,1.1930,1.7250,20.2140,-47.3280,32.2000
3.6313,0.1490,0.2200,1.1740,3.8470,25.4350,-46.6560,32.2500
3.6388,0.1310,0.2400,1.1540,3.3280,25.8470,-46.1070,32.2000
3.6509,0.1050,0.2490,1.1210,0.7330,26.5650,-44.8700,32.2000
3.6584,0.1130,0.2430,1.1070,-1.3740,24.8090,-44.2440,32.2500
3.6704,0.1040,0.2420,1.1450,-1.1450,20.8850,-46.1070,32.2500
3.6776,0.1500,0.2120,1.1590,0.3210,17.0230,-48.1680,32.2500
3.6899,0.1770,0.2070,1.1580,0.2900,20.0310,-51.7860,32.2000
3.6971,0.1450,0.1990,1.1560,0.0920,16.7480,-54.0310,32.2500
3.7094,0.1390,0.1980,1.1580,0.4890,17.6340,-54.5190,32.2000
3.7168,0.1340,0.1930,1.1570,1.5570,18.7480,-54.9310,32.2000
3.7291,0.0880,0.1850,1.1510,1.8020,24.7020,-53.4660,32.1500
3.7412,0.0010,0.1820,1.1120,-0.1220,25.0530,-50.5800,32.1500
3.7482,-0.0060,0.1940,1.0840,-3.0530,22.5500,-46.0920,32.1500
3.7604,0.0660,0.1940,1.1160,-5.4810,19.4200,-43.0230,32.2900
3.7675,0.1450,0.1810,1.1570,-5.2210,20.0760,-43.9240,32.2500
3.7800,0.1740,0.1700,1.1830,-4.8090,20.3970,-46.3820,32.2000
3.7873,0.1470,0.1620,1.2030,-2.4270,18.6110,-49.4810,32.2000
3.7992,0.1430,0.1580,1.1800,-0.7940,16.0760,-51.2370,32.2500
3.8112,0.1280,0.1820,1.1540,-0.5500,15.9540,-51.5570,32.1500
3.8185,0.1310,0.2080,1.1360,-0.2140,14.2440,-51.0080,32.2500
3.8310,0.1110,0.2240,1.1310,-0.8700,15.8170,-49.8780,32.1100
3.8381,0.1170,0.2290,1.1500,0.9770,16.9310,-49.1910,32.2500
3.8501,0.0990,0.2350,1.1300,0.8700,20.5340,-49.7560,32.2900
3.8576,0.0730,0.2450,1.0960,-1.0530,18.5800,-49.4200,32.2500
3.8698,0.0970,0.2300,1.1210,-0.4730,16.3050,-47.4050,32.1500
3.8769,0.1410,0.1830,1.1620,2.8700,18.7180,-46.4730,32.1500
3.8893,0.1550,0.1550,1.1920,3.8170,18.7330,-47.3590,32.2500
3.9013,0.1810,0.1360,1.2300,8.8240,15.4810,-53.1150,32.2900
3.9088,0.1620,0.1520,1.2010,12.9770,14.6870,-59.5420,32.1500
3.9210,0.0930,0.1820,1.1170,12.6110,9.7400,-62.3210,32.2900
3.9280,0.0850,0.2190,1.0570,8.5800,9.8320,-61.3890,32.2500
3.9404,0.0540,0.2390,1.0430,3.9390,10.4580,-56.8090,32.2500
3.9479,0.0540,0.2510,1.0210,-2.0150,15.6490,-50.2600,32.1500
3.9600,0.0480,0.2660,1.0560,-8.0610,19.9240,-43.1300,32.2500
3.9671,0.0490,0.2510,1.0860,-10.8850,26.6410,-36.1530,32.2000
3.9793,0.0850,0.2280,1.1310,-11.3280,31.4500,-32.5650,32.2500
3.9914,0.1160,0.2080,1.1390,-11.2980,33.3440,-31.1760,32.2900
3.9985,0.1630,0.1930,1.1640,-10.4580,31.5730,-33.6640,32.1500
