Time,AX,AY,AZ,GX,GY,GZ,T
0.0000,0.1830,0.2080,1.0800,-7.7560,25.4810,-44.8240,32.4800
0.0004,0.1460,0.2120,1.0680,-7.5270,27.0990,-44.5800,32.6200
0.0008,0.1160,0.1990,1.0640,-7.0530,25.0380,-43.0840,32.5300
0.0013,0.1260,0.1780,1.0460,-6.2900,23.0080,-41.7400,32.4400
0.0017,0.1430,0.1610,1.0640,-5.5730,19.9080,-41.4050,32.5800
0.0021,0.1580,0.1600,1.0330,-5.2520,18.6720,-40.8090,32.5300
0.0025,0.1640,0.1880,1.0490,-6.0920,18.7790,-39.4660,32.4800
0.0029,0.1560,0.2070,1.0450,-6.1680,21.5570,-38.5650,32.5300
0.0033,0.1450,0.2150,1.0570,-6.0760,22.3820,-36.8090,32.5300
0.0038,0.1420,0.2240,1.0700,-5.2060,25.4960,-34.2600,32.5300
0.0042,0.1630,0.2330,1.0260,-5.8780,28.2290,-33.0230,32.5300
0.0048,0.1510,0.2290,1.0060,-8.5800,24.9010,-34.8240,32.5800
0.0052,0.1320,0.2330,1.0170,-11.5570,20.2900,-36.7940,32.5300
0.0056,0.1430,0.2080,1.0450,-11.7400,17.3890,-39.0380,32.4800
0.0060,0.1370,0.1910,1.0240,-12.6260,14.7790,-41.1600,32.4400
0.0064,0.1350,0.1600,1.0470,-12.4580,10.7940,-41.3130,32.4800
0.0067,0.1440,0.1490,1.0350,-13.3740,12.0610,-40.1980,32.5300
0.0071,0.1480,0.1560,1.0840,-12.2900,8.6720,-38.6260,32.5300
0.0075,0.1750,0.1620,1.1000,-10.5500,14.5500,-36.8850,32.4800
0.0079,0.1730,0.1580,1.0880,-9.0380,17.0080,-35.2210,32.6200
0.0083,0.1750,0.1580,1.0910,-9.4500,17.8470,-35.8930,32.5800
0.0086,0.1570,0.1390,1.0890,-6.7790,12.7330,-37.7100,32.5300
0.0090,0.1600,0.1470,1.0090,-8.6870,11.4200,-39.2820,32.5800
0.0094,0.1470,0.1700,1.0100,-13.1600,3.6640,-40.4580,32.4400
0.0097,0.1440,0.1700,1.0680,-12.2440,2.2900,-40.1830,32.4400
0.0100,0.1450,0.1530,1.0770,-13.1450,4.1370,-37.1150,32.5800
0.0103,0.2090,0.1360,1.1340,-12.5190,4.0310,-33.1910,32.5300
0.0106,0.2810,0.1310,1.1380,-10.4890,12.7790,-30.6720,32.4800
0.0110,0.2970,0.1250,1.1520,-6.9310,18.9310,-29.4500,32.5300
0.0113,0.3130,0.1200,1.0920,-6.9160,25.9540,-29.7860,32.4800
0.0118,0.2830,0.1680,1.0740,-9.3280,28.4580,-30.7940,32.4400
0.0126,0.2500,0.2140,1.0680,-8.9470,27.4200,-33.0230,32.4800
0.0130,0.1900,0.2320,1.0520,-10.3360,21.2670,-35.0080,32.4800
0.0134,0.1720,0.2360,1.0430,-12.7180,16.7940,-34.6260,32.5300
0.0137,0.2040,0.2230,1.0630,-15.0690,12.4890,-33.4810,32.4800
0.0141,0.2430,0.2510,1.0510,-18.8400,16.0610,-31.2670,32.5300
0.0145,0.2460,0.2700,1.0790,-23.5110,18.8550,-30.0310,32.4800
0.0149,0.2120,0.2900,1.1230,-24.2600,25.3590,-27.4660,32.5300
0.0153,0.1440,0.2220,1.1420,-24.4580,24.8240,-25.6490,32.4800
0.0158,0.0620,0.1660,1.2070,-19.0990,11.6950,-20.6560,32.5800
0.0161,0.1570,0.1370,1.1900,-15.3440,12.0150,-14.1830,32.5300
0.0165,0.3100,0.1560,1.1650,-13.9240,12.8400,-12.1830,32.4800
0.0168,0.4560,0.1630,1.1290,-15.9690,18.8700,-16.5500,32.5300
0.0172,0.4780,0.1430,1.1880,-17.1760,22.5800,-25.7710,32.5800
0.0176,0.5840,0.1680,1.0720,-20.4270,49.8320,-36.4580,32.5300
0.0181,0.3240,0.1850,1.2160,-26.2750,35.4660,-47.7400,32.4800
0.0185,0.2310,0.0530,1.2160,-30.6720,28.7790,-50.1070,32.5300
0.0188,0.1780,0.1610,1.2280,-21.7100,33.3890,-47.6180,32.5300
0.0191,0.1340,0.1570,1.2020,-17.8020,29.6180,-46.5040,32.5800
0.0194,0.1650,0.1350,1.1990,-19.5570,28.3050,-43.8320,32.5300
0.0197,0.1470,0.1170,1.2080,-18.8700,32.0460,-40.6110,32.4800
0.0199,0.1560,0.1300,1.1290,-22.2750,29.6490,-38.0610,32.6200
0.0202,0.1610,0.1120,1.0990,-27.2060,30.2750,-36.0310,32.4800
0.0205,0.1890,0.1350,1.1200,-23.6340,35.5420,-36.7630,32.4800
0.0208,0.1510,0.1420,1.1420,-18.0150,31.2210,-39.9390,32.5300
0.0211,0.1480,0.1460,1.1380,-14.8090,26.6560,-43.0080,32.4800
0.0213,0.1380,0.1460,1.1490,-13.8470,24.3820,-44.7180,32.5300
0.0216,0.1040,0.1460,1.1290,-16.5190,16.2140,-42.9920,32.4800
0.0219,0.1430,0.1310,1.1270,-20.3660,13.7250,-38.0920,32.5300
0.0222,0.2350,0.1200,1.1510,-21.5270,21.1450,-34.2900,32.4800
0.0225,0.2680,0.1250,1.1430,-22.7020,33.1300,-32.5950,32.5800
0.0227,0.2580,0.1340,1.1160,-25.7560,38.6870,-32.7330,32.5300
0.0230,0.2670,0.1120,1.1490,-26.5190,38.1680,-34.4580,32.5800
0.0233,0.2820,0.0930,1.1820,-24.7480,35.0840,-37.9850,32.5300
0.0238,0.2600,0.0720,1.1880,-21.7710,29.7400,-42.9160,32.4800
0.0241,0.1990,0.0500,1.1920,-20.5500,24.4430,-45.1450,32.5300
0.0244,0.1720,0.0370,1.2180,-19.9080,25.9540,-43.2980,32.4800
0.0247,0.1850,0.0440,1.2860,-16.3360,25.1150,-42.2900,32.4800
0.0249,0.2030,0.0580,1.2800,-10.0460,33.5270,-40.0460,32.5300
0.0252,0.1620,0.0840,1.2590,-9.7250,38.0760,-38.4120,32.4800
0.0255,0.1030,0.0830,1.2150,-8.4430,35.1910,-35.1600,32.4400
0.0258,0.1540,0.0730,1.1460,-13.7400,30.7020,-34.3820,32.4800
0.0260,0.1640,0.0730,1.1830,-19.0080,27.2520,-34.3050,32.5300
0.0262,0.2220,0.0970,1.1950,-16.4890,22.8550,-38.5950,32.4800
0.0263,0.2460,0.1080,1.1950,-19.2060,21.4200,-42.9010,32.5300
0.0265,0.2220,0.1000,1.2440,-22.2140,23.6950,-44.9620,32.5300
0.0266,0.2460,0.0680,1.2880,-21.4960,28.2750,-45.1910,32.4800
0.0267,0.2480,0.0450,1.3120,-19.9540,36.9010,-45.5270,32.4400
0.0269,0.2310,0.0170,1.2830,-17.2520,38.7020,-46.4430,32.4800
0.0270,0.2250,0.0090,1.2900,-17.7400,36.3820,-48.6870,32.5300
0.0271,0.2370,0.0250,1.2350,-18.0310,34.7940,-51.2820,32.5800
0.0273,0.1990,0.0390,1.2430,-22.7940,28.6260,-55.0530,32.5300
0.0274,0.0980,-0.0080,1.2680,-17.5880,19.9540,-56.1680,32.6200
0.0277,0.0770,-0.0200,1.2690,-13.7860,24.3820,-51.6640,32.4800
0.0279,0.0500,0.0000,1.2210,-12.9010,25.1600,-45.7860,32.5300
0.0282,0.0600,0.0420,1.1100,-16.4430,30.2600,-39.1600,32.4800
0.0284,0.0780,0.0190,1.1930,-12.9310,25.2670,-36.2290,32.5300
0.0287,0.1400,0.0560,1.1180,-13.7400,25.4200,-36.8240,32.4800
0.0289,0.1770,0.0340,1.1210,-16.9010,18.5040,-41.0380,32.5300
0.0292,0.1620,0.0230,1.1780,-16.6720,16.3210,-44.5950,32.4400
0.0295,0.1360,-0.0010,1.2590,-17.2670,14.5340,-42.2600,32.5800
0.0297,0.2260,-0.1080,1.2030,-11.3890,22.3050,-46.6110,32.4400
0.0299,0.1250,-0.0830,1.2090,-8.2140,14.8240,-44.5040,32.4800
0.0302,0.0470,-0.0120,1.2490,-1.8470,9.6490,-38.0920,32.4400
0.0304,0.1540,0.0560,1.1150,-4.1070,23.3890,-34.3210,32.5800
0.0307,0.1810,0.0930,1.0710,-11.7400,16.3820,-35.4960,32.4400
0.0309,0.2330,0.1390,0.9810,-19.6640,17.8020,-34.9770,32.4800
0.0312,0.2990,0.0740,0.9290,-23.2820,29.6490,-40.0150,32.4800
0.0314,0.1860,0.0330,1.2270,-25.6340,14.2750,-42.4270,32.5300
0.0316,0.2400,-0.0250,1.2440,-20.1220,26.0610,-44.7020,32.5800
0.0319,0.1840,-0.0400,1.2530,-15.9080,27.2520,-45.3890,32.4400
0.0322,0.1370,-0.0490,1.2420,-13.5420,23.2060,-46.6870,32.4800
0.0324,0.1080,-0.0240,1.1930,-11.9850,23.4660,-43.4500,32.5300
0.0326,0.1450,-0.0040,1.1740,-14.3660,23.1300,-41.5420,32.5800
0.0329,0.1710,0.0100,1.2010,-15.1450,23.4350,-42.6870,32.4400
0.0331,0.1740,-0.0030,1.1870,-14.3970,22.5500,-45.0840,32.4800
0.0333,0.1650,-0.0160,1.1300,-15.8780,20.8700,-46.5650,32.4800
0.0335,0.1920,-0.0220,1.1770,-18.5500,21.8020,-46.6870,32.5300
0.0338,0.2050,-0.0760,1.2640,-13.5730,23.6180,-47.5110,32.5300
0.0340,0.2140,-0.0940,1.2540,-8.2900,25.8470,-48.8700,32.4400
0.0342,0.1770,-0.0720,1.2250,-9.2060,30.3660,-50.1220,32.4800
0.0344,0.1360,-0.0450,1.1970,-9.1600,29.3440,-49.5880,32.5300
0.0347,0.1020,-0.0160,1.2150,-10.2440,23.6340,-47.7100,32.5800
0.0349,0.0940,-0.0470,1.2630,-13.5420,5.1300,-44.7330,32.5300
0.0351,0.1630,-0.0310,1.1930,-23.1150,-5.7250,-47.8170,32.5800
0.0353,0.1630,-0.0310,1.1750,-13.9690,0.8700,-48.7180,32.4400
0.0356,0.1930,-0.0360,1.2390,-14.0460,14.2290,-48.0760,32.4400
0.0358,0.1700,-0.0670,1.3030,-16.9010,12.4120,-48.7330,32.4800
0.0360,0.1650,-0.1080,1.2590,-4.0000,23.3440,-46.7330,32.5300
0.0362,0.1350,-0.0860,1.2780,-1.3440,23.0230,-42.9470,32.5800
0.0365,0.1590,-0.0830,1.2530,3.1910,20.0610,-43.1150,32.5300
0.0367,0.1390,-0.0610,1.2030,3.4200,22.3050,-41.6790,32.4800
0.0369,0.1660,-0.0200,1.1210,-0.1980,20.8850,-41.1300,32.5300
0.0371,0.1690,0.0030,1.1080,-5.6790,19.1760,-41.6490,32.5300
0.0373,0.1980,0.0040,1.1580,-7.4660,11.5730,-44.7480,32.5800
0.0376,0.2100,-0.0160,1.2040,-8.9010,17.1600,-45.6180,32.5300
0.0378,0.2010,-0.0440,1.1700,-4.9310,22.3970,-45.2520,32.5800
0.0380,0.1830,-0.0460,1.1380,-8.7480,32.4730,-42.0760,32.5300
0.0382,0.1990,-0.0270,1.1210,-12.2140,33.8930,-40.1830,32.5800
0.0384,0.1920,-0.0370,1.1710,-12.7180,28.5040,-42.2440,32.6200
0.0387,0.2190,-0.0650,1.2090,-9.5110,26.3660,-46.2750,32.5300
0.0389,0.1710,-0.0470,1.1480,-10.9310,24.7630,-48.5040,32.5800
0.0391,0.1610,-0.0440,1.1560,-14.8400,26.9920,-48.6720,32.5300
0.0393,0.1220,-0.0610,1.1770,-15.2520,28.9770,-44.1530,32.5800
0.0395,0.1520,-0.0860,1.2110,-12.5650,27.1150,-42.2140,32.4400
0.0397,0.1650,-0.1090,1.2700,-6.7630,30.4580,-41.6180,32.4800
0.0399,0.1770,-0.1050,1.2000,-3.8170,33.5570,-42.1530,32.5300
0.0401,0.1610,-0.0520,1.1460,-9.2370,31.8630,-41.1150,32.4800
0.0403,0.1780,-0.0580,1.1350,-7.8930,34.1530,-42.5040,32.5800
0.0406,0.1580,-0.0480,1.1190,-8.6720,28.4730,-44.4890,32.5300
0.0408,0.1330,-0.0370,1.1130,-11.5270,25.7860,-45.0380,32.4800
0.0410,0.1360,-0.0300,1.1820,-13.2060,22.7330,-43.8930,32.5300
0.0412,0.1390,-0.0520,1.1790,-10.9010,27.1600,-42.4120,32.4800
0.0414,0.1410,-0.0630,1.1810,-11.8170,33.6790,-40.7790,32.5300
0.0416,0.1330,-0.0420,1.1820,-13.6180,37.2670,-39.1910,32.4800
0.0418,0.1290,-0.0320,1.1660,-14.7630,36.7480,-39.2060,32.5800
0.0420,0.1150,-0.0340,1.1840,-15.3740,29.8170,-41.6340,32.5300
0.0422,0.1360,-0.1090,1.0820,-8.7790,25.7560,-42.6410,32.5800
0.0424,0.0850,0.0100,1.3240,-6.3210,-9.1450,-39.1600,32.6200
0.0426,0.2380,-0.0650,1.2490,-8.7790,29.5730,-39.2520,32.4800
0.0429,0.1920,-0.0750,1.2300,-19.2980,14.8700,-42.6110,32.4400
0.0430,0.1690,0.0170,1.3410,-27.3280,14.0920,-43.8630,32.5800
0.0431,0.1950,-0.0930,1.3250,-12.0310,20.9770,-45.3890,32.6200
0.0433,0.1690,-0.1220,1.2800,-7.5730,18.9620,-43.6030,32.4800
0.0434,0.1610,-0.1080,1.2600,-9.2670,25.1910,-42.1830,32.5800
0.0437,0.0640,-0.1130,1.2310,-4.1530,20.4580,-44.8090,32.5300
0.0438,0.0790,-0.1000,1.2120,-1.9240,21.6340,-43.4810,32.6200
0.0439,0.0890,-0.0780,1.1560,-3.7100,23.4200,-42.0760,32.4800
0.0441,0.1040,-0.0650,1.1610,-7.0230,23.6030,-42.9310,32.5300
0.0442,0.0970,-0.0740,1.1970,-7.8630,23.9540,-43.5110,32.5800
0.0551,0.1030,-0.0780,1.2110,-8.3050,23.0230,-44.5800,32.5300
0.0673,0.1010,-0.0860,1.2380,-6.5340,20.5650,-46.8400,32.4800
0.0739,0.0710,-0.1080,1.2320,-4.7630,19.1760,-46.6560,32.6200
0.0863,0.0570,-0.1150,1.2540,-3.8930,19.2820,-45.2370,32.5300
0.0931,0.0720,-0.1100,1.2690,-1.2820,16.5950,-44.9010,32.4800
0.1053,0.0890,-0.1010,1.2390,0.3050,16.3820,-45.8780,32.5300
0.1176,0.0910,-0.0920,1.2320,0.1530,16.4890,-46.6260,32.5800
0.1245,0.0800,-0.0760,1.2370,0.1220,17.8170,-46.9010,32.5300
0.1368,0.0830,-0.0730,1.1870,-0.7480,20.1370,-47.2520,32.5800
0.1436,0.0640,-0.0750,1.1860,-4.2440,20.0000,-46.9160,32.5300
0.1559,0.0710,-0.0900,1.1920,-6.9160,19.0230,-46.5500,32.6200
0.1679,0.0820,-0.0990,1.2260,-7.7250,19.0080,-46.2900,32.5800
0.1750,0.0680,-0.0970,1.2430,-6.1680,20.3050,-45.1150,32.5300
0.1868,0.0780,-0.1090,1.2640,-2.6110,17.6790,-44.6870,32.5800
0.1939,0.0760,-0.1150,1.2650,1.3890,16.3050,-44.8400,32.5300
0.2062,0.0980,-0.0990,1.2240,2.8550,15.8780,-44.4270,32.4800
0.2128,0.0840,-0.0730,1.2190,3.6790,16.2290,-44.0760,32.5300
0.2252,0.0920,-0.0630,1.1710,1.8630,18.9470,-41.8630,32.5300
0.2376,0.1070,-0.0390,1.1800,-1.0840,22.6260,-40.7180,32.4800
0.2447,0.0990,-0.0470,1.1820,-2.6720,26.7480,-39.5880,32.5300
0.2565,0.1000,-0.0670,1.1770,-5.7560,29.0230,-39.0230,32.5800
0.2637,0.1170,-0.0720,1.2000,-7.3280,29.7400,-40.2600,32.6200
0.2756,0.1120,-0.1000,1.2770,-4.3510,24.7790,-43.0530,32.4800
0.2878,0.1070,-0.1200,1.2900,2.5950,20.5040,-45.5110,32.5300
0.2950,0.0560,-0.0950,1.1790,2.6870,19.5570,-44.4270,32.5300
0.3070,0.0480,-0.0580,1.1730,-0.8240,18.2440,-41.8630,32.5800
0.3139,0.0790,-0.0030,1.1440,-1.2820,19.0230,-40.1220,32.5300
0.3262,0.1130,0.0120,1.0440,-8.8240,20.8240,-39.9390,32.5800
0.3319,0.1100,-0.0040,1.0580,-19.5880,19.2520,-39.6340,32.6200
0.3453,0.1240,-0.0480,1.1540,-22.9620,16.7940,-42.1680,32.3900
0.3570,0.1210,-0.0970,1.1870,-22.0000,12.8090,-44.4730,32.4400
0.3639,0.1150,-0.1470,1.2730,-17.3890,11.0530,-46.0460,32.5300
0.3758,0.0880,-0.1490,1.2630,-9.7560,20.4430,-44.9920,32.4800
0.3880,0.0740,-0.0950,1.2030,-6.9770,24.6560,-43.3130,32.5300
0.3949,0.0320,-0.0730,1.1260,-8.3820,26.8550,-39.7860,32.5800
0.4070,0.0750,-0.0770,1.1020,-14.3210,19.0840,-38.2290,32.5300
0.4139,0.0790,-0.1000,1.2060,-12.9620,19.5880,-38.2750,32.4800
0.4259,0.0850,-0.1230,1.1860,-10.6410,19.8780,-37.6490,32.5300
0.4381,0.0940,-0.1250,1.1780,-12.8240,15.2820,-37.9690,32.5300
0.4449,0.1130,-0.1200,1.2040,-10.3210,11.6640,-40.2290,32.4800
0.4567,0.1100,-0.1050,1.1460,-9.3590,11.2670,-42.1530,32.5300
0.4637,0.0950,-0.1450,1.1760,-1.1600,4.3360,-45.2370,32.5800
0.4758,0.1450,-0.1050,1.1730,-10.2140,16.5950,-43.3280,32.5300
0.4880,0.1500,-0.1380,1.2640,-7.2520,15.7710,-44.8240,32.5800
0.4947,0.1710,-0.1690,1.3140,-0.9310,21.8470,-45.5110,32.5300
0.5069,0.1170,-0.1680,1.2810,4.4120,26.1370,-46.2900,32.5300
0.5137,0.1410,-0.0910,1.2820,11.9080,22.3210,-47.2370,32.4800
0.5260,0.1150,-0.1400,1.2070,10.6720,28.1370,-47.5730,32.5300
0.5314,0.0420,-0.1090,1.1820,8.0150,27.6030,-46.9160,32.5800
0.5449,0.0580,-0.1240,1.1450,5.8630,25.1600,-47.8780,32.4400
0.5571,0.0510,-0.1260,1.2120,3.6030,12.0310,-48.6260,32.4800
0.5643,0.0760,-0.0400,1.3030,10.9010,9.2670,-49.7710,32.5300
0.5764,0.0690,-0.1460,1.2040,11.8020,9.3590,-51.1600,32.5300
0.5837,0.0420,-0.1140,1.1710,9.2210,13.6490,-49.2670,32.5800
0.5959,0.0750,-0.0870,1.1660,7.7710,13.4960,-48.3510,32.5300
0.6079,0.0970,-0.0730,1.1520,7.0840,18.3210,-47.9850,32.4800
0.6149,0.0950,-0.0590,1.1350,4.0760,15.8630,-49.3130,32.5300
0.6269,0.0920,-0.0420,1.0960,0.5800,13.0380,-51.3130,32.5800
0.6342,0.0690,-0.0300,1.0770,-6.9620,11.0530,-52.1070,32.5300
0.6463,0.0980,-0.0590,1.1410,-8.5040,7.1910,-52.6260,32.5300
0.6532,0.0880,-0.1120,1.2340,-3.9080,3.4350,-52.5340,32.5800
0.6654,0.1060,-0.1120,1.2230,2.0000,3.6950,-52.1830,32.5300
0.6778,0.0780,-0.1190,1.1800,0.8700,7.9540,-50.5190,32.4800
0.6849,0.0850,-0.0930,1.1790,1.1300,10.2750,-49.2210,32.5300
0.6971,0.1000,-0.0930,1.1850,3.0380,12.2750,-47.2820,32.4800
0.7039,0.1120,-0.1150,1.2310,8.9010,11.3590,-46.8550,32.6200
0.7163,0.1400,-0.1230,1.2040,12.9470,15.8470,-47.0080,32.4400
0.7233,0.1380,-0.0930,1.1520,12.1530,13.7100,-48.0760,32.5800
0.7352,0.1320,-0.0850,1.1600,11.8780,13.8470,-49.3280,32.5300
0.7472,0.1220,-0.0860,1.1250,9.7400,18.3970,-47.5730,32.5800
0.7545,0.1250,-0.0720,1.1130,7.0380,17.7710,-45.6640,32.6200
0.7666,0.1180,-0.0710,1.1570,3.8020,18.5040,-45.1910,32.4800
0.7735,0.1410,-0.0720,1.1550,3.8020,20.9310,-48.2290,32.5300
0.7856,0.1470,-0.0590,1.1280,4.0150,21.8320,-52.5500,32.6200
0.7977,0.1070,-0.0420,1.1100,1.9390,20.9770,-55.8780,32.5800
0.8049,0.0580,-0.0360,1.1360,-2.1530,14.6260,-54.9920,32.5300
0.8171,0.0700,-0.0740,1.1240,-3.2980,10.9310,-50.3210,32.4800
0.8243,0.0880,-0.0980,1.2120,-1.7250,9.9080,-47.3440,32.5300
0.8360,0.1210,-0.0790,1.1910,-0.5040,15.0230,-46.6720,32.5800
0.8416,0.1140,-0.0880,1.2260,2.0460,13.5270,-45.8630,32.5300
0.8550,0.1030,-0.0760,1.2040,6.2750,15.8320,-45.7710,32.5300
0.8673,0.0880,-0.0430,1.1260,5.0530,15.0990,-44.0310,32.4800
0.8746,0.1270,-0.0370,1.1410,2.8400,16.1830,-42.2140,32.5300
0.8866,0.1720,-0.0320,1.1630,3.0380,16.0150,-42.1070,32.5800
0.8937,0.2280,-0.0280,1.1640,2.1220,19.8630,-44.1370,32.4400
0.9058,0.2370,-0.0180,1.1300,0.0000,24.1830,-46.9770,32.5800
0.9180,0.2120,-0.0140,1.1220,-2.0000,25.4960,-50.2290,32.5300
0.9249,0.1730,-0.0460,1.1770,-0.0920,24.6260,-52.8240,32.6200
0.9371,0.1400,-0.0730,1.1700,0.9160,22.6870,-55.0080,32.5800
0.9439,0.1340,-0.1100,1.2580,5.6180,21.4810,-56.4270,32.6200
0.9562,0.0960,-0.1320,1.2640,12.2750,26.7790,-55.5420,32.4800
0.9633,0.0480,-0.1100,1.1910,12.9310,25.2520,-52.3050,32.6200
0.9752,0.0230,-0.0810,1.1560,9.9690,23.9850,-47.3590,32.5800
0.9873,0.0370,-0.0660,1.1440,8.0460,22.3360,-42.2140,32.5300
0.9945,0.0920,-0.0470,1.1540,6.9620,23.9240,-38.9770,32.4400
1.0064,0.1420,-0.0340,1.1200,4.3050,25.5420,-39.6640,32.4800
1.0134,0.1560,-0.0220,1.1400,1.8170,24.4580,-41.9850,32.5300
1.0257,0.1580,-0.0520,1.1990,4.7180,21.1150,-44.8550,32.4800
1.0379,0.1600,-0.0510,1.1850,8.8240,17.8020,-47.4500,32.5300
1.0446,0.1790,-0.0610,1.1900,9.4200,20.4430,-48.3360,32.5800
1.0567,0.1630,-0.0700,1.2130,11.4660,22.3050,-47.8780,32.6200
1.0639,0.1310,-0.0470,1.1950,8.6720,28.5950,-45.6340,32.5800
1.0760,0.1300,-0.0520,1.1420,10.2600,25.3280,-44.6720,32.4800
1.0828,0.1290,-0.0340,1.1290,8.4120,26.7790,-44.8850,32.5300
1.0951,0.1060,-0.0220,1.1000,4.6410,20.3820,-45.6180,32.5800
1.1072,0.1250,-0.0250,1.1220,3.3890,13.8020,-47.4050,32.5300
1.1143,0.1450,-0.0430,1.1570,4.7180,12.2440,-50.2750,32.4800
1.1267,0.1250,-0.0580,1.1840,6.4580,14.8400,-50.5340,32.5300
1.1333,0.0760,-0.0400,1.1250,5.7860,16.7630,-49.0840,32.5800
1.1456,0.1010,-0.0350,1.1470,3.7860,16.7790,-46.4890,32.5800
1.1578,0.1220,-0.0370,1.1940,5.6640,16.2290,-45.8630,32.5300
1.1649,0.1380,-0.0350,1.1650,6.6260,17.9690,-44.8090,32.4800
1.1771,0.1690,-0.0210,1.1740,5.2520,17.8170,-45.6490,32.5300
1.1841,0.1730,-0.0090,1.1660,4.7630,19.4350,-48.1830,32.4800
1.1965,0.1470,0.0090,1.1320,3.8170,17.2980,-50.4120,32.4400
1.2035,0.1080,0.0270,1.1610,-1.7860,14.7790,-52.0920,32.5800
1.2157,0.0960,-0.0220,1.1640,3.5880,4.5500,-53.4660,32.5300
1.2279,0.1000,-0.0420,1.1650,2.9920,12.5040,-51.1600,32.5300
1.2350,0.1470,-0.0300,1.1680,-0.6110,13.6180,-49.9240,32.3900
1.2469,0.1340,-0.0310,1.2080,1.3440,16.5950,-49.7710,32.5300
1.2539,0.1080,-0.0270,1.1720,2.5950,18.5340,-48.6410,32.4800
1.2663,0.1100,-0.0150,1.1380,0.2440,17.2060,-47.6950,32.5300
1.2741,0.1140,0.0040,1.1530,-6.0310,14.8240,-48.3360,32.5800
1.2854,0.1800,-0.0270,1.1730,-4.0610,9.8170,-50.7020,32.6200
1.2977,0.2000,-0.0290,1.2150,-1.6180,13.8780,-53.2980,32.5300
1.3044,0.2060,-0.0340,1.2260,0.9620,15.8320,-57.1600,32.5800
1.3167,0.1840,-0.0190,1.1590,0.5950,19.0690,-60.5650,32.6200
1.3237,0.1950,0.0030,1.1470,-0.9770,17.0690,-65.6340,32.5800
1.3360,0.2080,0.0180,1.1480,-2.7180,11.7860,-71.1450,32.5300
1.3420,0.1590,0.0160,1.1420,-4.1830,9.9850,-73.2820,32.5800
1.3553,0.1410,-0.0020,1.1210,-9.9240,16.7180,-69.9390,32.5300
1.3673,0.1090,-0.0390,1.2470,-5.6490,13.2980,-66.7330,32.4800
1.3745,0.0900,-0.0290,1.1940,-6.5650,27.2520,-59.6950,32.4800
1.3863,0.0720,-0.0670,1.2740,0.1830,12.6720,-55.5570,32.5300
1.3935,0.1440,-0.0920,1.3010,7.8780,24.1070,-51.9690,32.4800
1.4056,0.1460,-0.0700,1.2540,13.4810,22.8850,-50.5650,32.5300
1.4178,0.1710,-0.0350,1.1940,15.7400,21.5420,-51.5570,32.6700
1.4247,0.1820,-0.0010,1.1130,12.9470,19.4200,-52.3360,32.5300
1.4368,0.2240,0.0340,1.0980,7.1910,16.7630,-56.4270,32.6700
1.4439,0.2190,0.0520,1.1030,4.0000,14.3360,-60.2750,32.5800
1.4561,0.1530,0.0540,1.0940,-0.1530,17.4200,-59.9690,32.5300
1.4633,0.1190,0.0460,1.1190,-4.4270,17.8320,-55.6030,32.4800
1.4754,0.1260,0.0240,1.1630,-6.0610,17.4050,-50.6720,32.6200
1.4875,0.1620,-0.0240,1.2190,-3.4810,20.4430,-48.6110,32.5800
1.4942,0.1890,-0.0070,1.2560,-1.4960,23.1300,-49.2670,32.5300
1.5065,0.2120,0.0050,1.2280,3.2210,17.1150,-53.0530,32.4800
1.5137,0.2060,-0.0000,1.2470,9.2670,17.9240,-57.8320,32.4800
1.5259,0.1340,0.0010,1.1870,11.2520,17.8020,-57.9080,32.5300
1.5380,0.1610,0.0250,1.1330,7.0380,19.3280,-53.8930,32.5800
1.5450,0.1820,0.0410,1.1590,3.2370,20.5950,-52.2600,32.5300
1.5572,0.1440,0.0470,1.1340,2.1830,21.8170,-50.8090,32.4800
1.5644,0.1300,0.0460,1.1090,-1.0990,20.6410,-49.4660,32.5300
1.5765,0.1590,0.0250,1.1450,-3.0840,14.9770,-52.4890,32.4800
1.5837,0.2080,-0.0170,1.2210,-0.9010,13.5110,-56.2290,32.4400
1.5954,0.2110,-0.0380,1.2600,2.3660,17.8020,-60.5040,32.5300
1.6078,0.1510,-0.0240,1.2050,4.8700,20.9010,-61.1910,32.4800
1.6149,0.0840,-0.0190,1.1750,2.9310,20.5500,-58.0610,32.5300
1.6270,0.0840,-0.0240,1.2020,4.0460,12.3820,-55.0080,32.4800
1.6343,0.1230,-0.0100,1.2060,2.5190,15.6950,-50.7330,32.5300
1.6463,0.1390,-0.0050,1.2000,4.2140,16.1370,-49.1300,32.4800
1.6533,0.1810,0.0150,1.1800,3.7860,15.6030,-49.6790,32.6200
1.6656,0.2070,0.0460,1.1460,3.0380,16.8400,-51.4810,32.5800
1.6778,0.2360,0.0640,1.1300,0.4270,15.0230,-55.1450,32.5800
1.6848,0.2270,0.0770,1.1280,-1.3440,15.8930,-58.3360,32.5300
1.6971,0.2150,0.0480,1.1700,-0.7180,17.5570,-60.3970,32.6200
1.7042,0.1610,0.0090,1.2170,1.9690,20.9470,-59.2820,32.5300
1.7164,0.1330,-0.0060,1.2220,4.7180,21.8930,-56.0920,32.5800
1.7237,0.0980,-0.0170,1.2130,7.3890,19.3440,-53.2980,32.5300
1.7358,0.0790,-0.0190,1.2200,9.6180,15.5110,-50.2750,32.4800
1.7478,0.1140,-0.0060,1.1910,12.6560,12.5800,-49.5420,32.5800
1.7547,0.1580,0.0320,1.1500,12.8550,15.3130,-49.8630,32.5300
1.7668,0.1710,0.0570,1.1270,10.8700,15.2210,-50.0760,32.5300
1.7742,0.1910,0.0750,1.0800,5.5880,18.8550,-48.7330,32.5300
1.7861,0.1820,0.0900,1.1020,1.7250,20.4580,-48.5800,32.6700
1.7933,0.1970,0.0950,1.1040,-1.2670,21.4200,-48.9920,32.5300
1.8054,0.2190,0.0820,1.1390,-1.8470,19.5570,-51.3440,32.5800
1.8175,0.2650,0.0820,1.1470,-1.1910,19.7100,-55.6640,32.5800
1.8248,0.2700,0.0830,1.1470,-1.2210,19.9240,-60.4270,32.5300
1.8368,0.2390,0.0520,1.2670,5.7710,15.2520,-63.5570,32.6200
1.8438,0.1900,0.0540,1.1490,9.0080,23.5110,-63.0530,32.5300
1.8561,0.1370,0.0730,1.0850,3.9540,22.3210,-59.7860,32.4800
1.8632,0.1110,0.0720,1.0940,0.2750,21.9390,-55.9390,32.5300
1.8755,0.1820,0.0630,1.1000,-2.8090,22.6260,-54.2290,32.4800
1.8875,0.2100,0.0600,1.1190,-5.0230,22.6410,-58.5190,32.5300
1.8947,0.1830,0.0620,1.1120,-6.0610,23.6950,-64.2900,32.6200
1.9069,0.1170,0.0580,1.1010,-6.9920,18.0920,-66.8850,32.5300
1.9140,0.1250,0.0480,1.1360,-7.9690,14.3660,-67.3440,32.5300
1.9261,0.1210,0.0290,1.1990,-6.1070,13.4200,-65.7250,32.5800
1.9319,0.1220,-0.0330,1.2430,-0.8240,19.2820,-61.0080,32.5300
1.9452,0.1320,-0.0020,1.2180,2.6720,19.5880,-56.4120,32.5800
1.9573,0.2020,0.0270,1.1570,17.1150,17.6950,-55.6030,32.6200
1.9644,0.2780,0.0420,1.1520,6.0760,26.8850,-57.5420,32.4800
1.9765,0.1950,0.0950,1.1400,3.7860,22.9010,-61.7860,32.5300
1.9838,0.1980,0.1050,1.0720,0.8400,18.4270,-64.3510,32.5300
1.9959,0.1780,0.1060,1.0780,-4.2290,15.8630,-66.1370,32.5800
2.0080,0.1830,0.0800,1.0910,-6.9770,17.3740,-66.2140,32.5300
2.0151,0.1590,-0.0660,1.1020,5.7100,15.6030,-68.4270,32.5800
2.0273,0.0830,-0.0130,1.1950,-3.2370,19.6790,-62.5950,32.5300
2.0342,0.0350,-0.0530,1.2660,-0.2750,18.6260,-57.7560,32.4800
2.0462,0.1110,0.0010,1.3210,9.5420,22.6720,-53.8170,32.5300
2.0535,0.0750,-0.0090,1.2570,15.2670,29.2210,-55.1600,32.6200
2.0657,0.1190,0.0080,1.1560,8.9920,17.9240,-52.4580,32.5800
2.0777,0.0800,0.0630,1.1520,8.3050,10.3660,-51.0990,32.5300
2.0849,0.1280,0.0940,1.0760,5.2060,7.2370,-49.0380,32.4800
2.0973,0.1780,0.0880,1.0930,-0.8700,4.7630,-48.0760,32.5300
2.1042,0.2240,0.0690,1.2050,-0.3050,5.1450,-48.7630,32.4800
2.1164,0.2390,0.0540,1.2030,3.0230,12.0000,-49.1910,32.6200
2.1238,0.2070,0.0810,1.1760,2.2440,15.0990,-48.7180,32.5300
2.1355,0.1860,0.0950,1.1940,2.5500,14.6560,-47.9540,32.5800
2.1412,0.2440,0.0990,1.1910,2.6410,15.7860,-46.7940,32.5300
2.1550,0.2030,0.0870,1.1780,4.8550,12.6560,-46.2900,32.6700
2.1674,0.2190,0.0930,1.1630,4.5500,16.3660,-46.1070,32.5300
2.1741,0.1970,0.1010,1.1490,3.7400,16.7480,-46.7180,32.5800
2.1865,0.1790,0.1180,1.1050,2.0760,14.0610,-48.4270,32.5300
2.1935,0.2130,0.1330,1.0880,-0.8090,10.2750,-51.3590,32.6200
2.2059,0.1940,0.1330,1.1310,-2.4270,6.7790,-53.0530,32.5800
2.2128,0.2010,0.1140,1.1430,-3.1300,9.2370,-51.7710,32.5300
2.2253,0.2270,0.1190,1.1550,-4.4730,12.8240,-49.3280,32.5800
2.2376,0.2290,0.0910,1.2650,0.1370,18.0310,-46.3360,32.6200
2.2446,0.2220,0.0830,1.2450,5.6790,23.6180,-44.1220,32.5800
2.2568,0.1980,0.0960,1.1670,4.3510,21.6950,-42.9010,32.5300
2.2639,0.2540,0.0950,1.1680,2.6870,16.1980,-45.6490,32.6200
2.2762,0.2870,0.1210,1.1980,5.1760,14.7330,-51.3280,32.4800
2.2832,0.2880,0.1340,1.1610,6.8550,16.7180,-55.6340,32.5300
2.2957,0.2200,0.1390,1.1150,3.8470,20.5500,-55.8320,32.4800
2.3079,0.2080,0.1370,1.0880,-0.3050,21.5730,-54.7480,32.5300
2.3149,0.2150,0.1260,1.1020,-2.7180,22.1370,-54.5190,32.4800
2.3272,0.2250,0.1010,1.1930,-1.0080,22.7790,-55.4350,32.4400
2.3343,0.1770,0.0820,1.1870,2.3210,22.3360,-56.6560,32.5300
2.3465,0.1690,0.0850,1.1460,0.6110,18.7330,-56.4120,32.4800
2.3537,0.1710,0.0760,1.1980,2.7790,13.7860,-55.9390,32.5300
2.3661,0.1640,0.0720,1.1630,4.0460,18.2900,-54.6410,32.5800
2.3779,0.1300,0.0760,1.1190,0.8090,19.4660,-52.0760,32.5300
2.3851,0.1280,0.0490,1.1380,-2.9160,16.1680,-51.0230,32.4800
2.3973,0.1530,0.0280,1.1940,-1.6340,11.5110,-52.0760,32.4400
2.4045,0.1750,0.0080,1.2180,0.4730,9.8470,-54.5340,32.6200
2.4169,0.1850,0.0250,1.2140,1.7560,9.5570,-56.7180,32.4800
2.4239,0.1300,0.0230,1.2260,4.5950,9.9390,-56.5500,32.6200
2.4363,0.0900,0.0400,1.1840,4.7180,11.3280,-52.3360,32.5800
2.4435,0.1160,0.0350,1.1900,4.2440,14.0920,-46.1070,32.5300
2.4558,0.1800,0.0510,1.1850,4.7480,15.2670,-43.9540,32.4800
2.4677,0.2270,0.0630,1.1850,5.3130,14.8090,-46.0310,32.6200
2.4749,0.2410,0.0450,1.2060,8.6870,14.0610,-49.4810,32.5300
2.4873,0.2030,0.0650,1.1680,10.4430,15.3130,-51.8930,32.4800
2.4939,0.1600,0.0880,1.1040,8.0760,12.3820,-50.8090,32.6200
2.5064,0.1520,0.0890,1.1000,3.9690,11.5110,-46.4270,32.4800
2.5137,0.1960,0.0720,1.1440,3.0840,13.2520,-43.0530,32.5300
2.5258,0.2530,0.0610,1.1730,4.1680,16.0150,-43.3740,32.4800
2.5379,0.2810,0.0830,1.1970,6.6260,14.3970,-48.5500,32.6200
2.5452,0.2410,0.0950,1.1810,10.5040,16.6870,-53.1910,32.5300
2.5572,0.1830,0.1150,1.1250,11.7400,15.8470,-53.4350,32.5800
2.5645,0.1460,0.1330,1.0650,7.7400,14.3970,-49.3890,32.6200
2.5765,0.1800,0.1460,1.0630,4.7020,15.3440,-44.7330,32.4800
2.5836,0.2280,0.1530,1.0840,2.1370,20.2750,-40.6870,32.4400
2.5960,0.2660,0.1490,1.0780,-0.3820,24.3050,-41.1150,32.4800
2.6017,0.2790,0.1410,1.1160,-0.9620,22.6260,-45.3740,32.5300
2.6153,0.2670,0.1200,1.1290,0.4580,20.4270,-49.8320,32.5800
2.6275,0.2370,0.1090,1.1340,1.0990,19.1600,-52.3360,32.4800
2.6347,0.1840,0.0990,1.1320,2.4430,19.5880,-52.6560,32.6200
2.6468,0.1810,0.1160,1.1500,0.6410,18.7940,-49.3130,32.4800
2.6540,0.1780,0.1060,1.1590,1.4960,24.6720,-43.0840,32.5300
2.6661,0.2230,0.1170,1.1350,5.6790,18.1370,-38.7790,32.4800
2.6732,0.2520,0.0880,1.0620,2.2440,30.0000,-38.4270,32.5300
2.6856,0.2200,0.1040,1.1440,-2.8400,21.6790,-39.2370,32.4800
2.6977,0.2310,0.0940,1.2080,0.8240,26.4890,-40.5340,32.5300
2.7049,0.2230,0.0860,1.1860,2.4730,27.1600,-41.3130,32.5300
2.7170,0.2230,0.0930,1.1910,2.1070,26.1220,-43.0230,32.5800
2.7243,0.1890,0.1240,1.1530,5.2980,20.9310,-45.8780,32.5300
2.7363,0.1920,0.1390,1.0990,2.3210,17.9690,-46.4430,32.4800
2.7434,0.2140,0.1470,1.1100,-1.1910,15.2060,-46.4270,32.5300
2.7556,0.2360,0.1290,1.1580,-0.3210,16.8550,-45.8630,32.5800
2.7677,0.2260,0.1150,1.2000,2.0460,22.4730,-45.3890,32.5300
2.7749,0.2000,0.1160,1.1860,2.5800,23.7250,-45.9690,32.4400
2.7873,0.1870,0.1160,1.2000,4.3050,19.0380,-46.7480,32.5800
2.7944,0.2220,0.1340,1.1490,5.8780,19.7100,-48.4430,32.4400
2.8065,0.2110,0.1330,1.1350,4.4120,16.4430,-50.3970,32.4800
2.8137,0.2060,0.1280,1.1130,2.4270,17.6340,-50.6410,32.5300
2.8259,0.1820,0.1260,1.1420,0.7790,16.3050,-49.3130,32.4800
2.8318,0.1750,0.0990,1.2030,2.6110,14.8550,-47.8320,32.5300
2.8453,0.1750,0.0830,1.1940,3.6030,18.4120,-44.7020,32.5800
2.8577,0.2000,0.1000,1.1950,2.9160,18.9470,-42.9920,32.5800
2.8647,0.2500,0.1180,1.1530,2.6410,18.7480,-44.5800,32.5300
2.8768,0.2600,0.1190,1.1710,2.8240,17.9080,-47.7860,32.4800
2.8839,0.2590,0.1070,1.2100,3.8470,14.4730,-50.6560,32.6200
2.8963,0.2670,0.1010,1.2300,9.1150,15.4960,-54.3050,32.5800
2.9036,0.2020,0.1140,1.1760,10.0610,17.0380,-54.2140,32.5300
2.9158,0.1900,0.1310,1.1370,7.6950,17.4960,-51.6180,32.5800
2.9277,0.1740,0.1370,1.1480,7.3280,17.9540,-48.7180,32.6200
2.9349,0.2130,0.1350,1.1480,6.9160,19.7250,-46.6720,32.5300
2.9470,0.2600,0.1320,1.1720,8.1680,21.4200,-47.9080,32.5800
2.9543,0.2460,0.1430,1.1520,8.6560,20.5040,-49.8930,32.6200
2.9666,0.2160,0.1430,1.1660,9.7560,18.3360,-50.8240,32.4800
2.9736,0.1890,0.1280,1.2200,14.2750,16.8090,-50.5800,32.5300
2.9858,0.1600,0.1300,1.1650,14.4120,19.9540,-47.0080,32.4800
2.9981,0.1730,0.1440,1.1370,12.1980,17.2370,-43.5110,32.5300
3.0048,0.2490,0.1460,1.1250,11.5880,19.6180,-43.5880,32.5800
3.0170,0.2750,0.1600,1.1140,10.2440,17.5110,-46.6560,32.4800
3.0244,0.2620,0.1650,1.0950,7.7100,16.0920,-50.1830,32.5300
3.0364,0.2440,0.1580,1.1090,6.3210,15.6180,-52.8850,32.5300
3.0433,0.2200,0.1600,1.1220,5.9240,16.2600,-52.8850,32.6200
3.0557,0.1860,0.1610,1.1300,4.8850,17.4810,-50.9310,32.4800
3.0680,0.1980,0.1510,1.1550,4.8090,18.9770,-48.2750,32.5300
3.0752,0.1900,0.1460,1.1820,7.2060,19.8170,-47.0990,32.5800
3.0873,0.2180,0.1390,1.2120,12.8240,17.8020,-47.2820,32.4800
3.0944,0.2230,0.1530,1.1660,14.7180,21.8170,-47.2670,32.5300
3.1065,0.2060,0.1810,1.1380,15.3740,19.1450,-47.5570,32.6200
3.1138,0.1870,0.1980,1.1070,14.5650,16.4270,-46.8090,32.6200
3.1259,0.2090,0.1980,1.0930,12.5040,17.9080,-45.1300,32.5800
3.1380,0.2040,0.2110,1.0720,9.8320,19.0690,-44.0000,32.5300
3.1451,0.2140,0.2130,1.0790,7.7250,21.8320,-43.6180,32.4800
3.1574,0.2330,0.2030,1.0870,6.9310,24.6260,-44.5650,32.5300
3.1644,0.2190,0.2020,1.0940,6.5340,21.7400,-46.3360,32.5300
3.1765,0.2090,0.1880,1.1200,7.5420,18.3510,-47.6030,32.5300
3.1837,0.1980,0.1860,1.1090,8.9470,19.9540,-47.8470,32.6200
3.1962,0.1660,0.1890,1.0630,7.3440,19.7100,-45.4200,32.5800
3.2033,0.1620,0.1890,1.0760,7.3440,19.1300,-42.4890,32.6200
3.2154,0.2040,0.1880,1.0650,7.3130,24.1680,-40.6560,32.5800
3.2275,0.2390,0.1980,1.0800,6.0310,25.2370,-41.2060,32.6200
3.2347,0.2470,0.2080,1.1460,7.7560,24.6560,-43.5730,32.6700
3.2472,0.2480,0.2200,1.1310,8.8240,31.1150,-43.5420,32.6200
3.2543,0.2210,0.2250,1.1150,7.8630,33.4050,-42.8700,32.5300
3.2663,0.2240,0.2090,1.1220,9.0840,35.0840,-42.3970,32.5800
3.2735,0.1780,0.1990,1.1090,9.6640,36.1680,-41.6950,32.5300
3.2855,0.1520,0.2100,1.0940,8.6720,31.8020,-41.9080,32.4800
3.2980,0.1500,0.2250,1.0680,8.0460,28.9620,-41.5270,32.5300
3.3051,0.1510,0.2300,1.0540,6.2290,28.0610,-40.6870,32.4800
3.3173,0.1580,0.2440,1.0700,5.3740,25.9850,-40.7630,32.5300
3.3246,0.1550,0.2290,1.0250,4.2140,22.5190,-41.3740,32.5300
3.3365,0.1740,0.2240,1.0460,1.1760,18.8240,-42.0150,32.4800
3.3436,0.1750,0.1930,1.0950,3.1300,16.9310,-42.5500,32.5300
3.3562,0.1740,0.1920,1.0700,4.7630,18.6260,-42.3660,32.5800
3.3631,0.1780,0.1990,1.0530,3.3590,18.1680,-41.6490,32.5300
3.3752,0.1900,0.2070,1.0430,3.7710,18.7330,-41.3590,32.5800
3.3873,0.1860,0.2120,1.0190,3.4350,19.7710,-41.5880,32.5300
3.3943,0.1710,0.2160,1.0100,1.6340,18.7940,-41.0380,32.5300
3.4069,0.1740,0.2210,1.0440,3.4500,17.4350,-40.8090,32.5800
3.4138,0.1700,0.2450,1.0010,4.6870,17.0840,-40.4270,32.5300
3.4261,0.1640,0.2540,0.9550,1.3590,16.7180,-38.7630,32.5800
3.4332,0.1900,0.2470,0.9920,1.3890,18.6560,-37.4050,32.6200
3.4453,0.2060,0.2350,0.9670,1.7400,20.4890,-35.8630,32.4800
3.4578,0.2070,0.2450,0.9390,-2.3510,23.2060,-33.3130,32.5300
3.4646,0.2360,0.2560,0.9530,-5.2820,25.9690,-32.3660,32.5300
3.4769,0.2450,0.2640,0.9660,-6.9920,25.0840,-33.8780,32.4800
3.4840,0.2410,0.2500,0.9630,-9.2520,19.8320,-35.4960,32.5300
3.4962,0.2470,0.2360,0.9780,-9.3440,16.3510,-37.6030,32.5800
3.5032,0.2740,0.2160,1.0090,-6.0460,13.7710,-39.8630,32.5300
3.5155,0.2460,0.2170,0.9320,-7.0380,17.4500,-39.9690,32.5800
3.5276,0.2100,0.2100,0.9180,-9.6180,16.3970,-37.6180,32.6200
3.5345,0.2140,0.1890,0.8870,-12.5190,16.9310,-35.0530,32.5800
3.5468,0.2480,0.1700,0.9070,-14.0920,19.2980,-33.6030,32.5800
3.5538,0.2680,0.1650,0.9230,-15.9240,21.6640,-33.1300,32.6200
3.5658,0.2820,0.1610,1.0170,-15.8630,26.3820,-33.5570,32.5800
3.5780,0.2690,0.1490,1.0320,-12.1220,32.0000,-34.5800,32.6200
3.5848,0.2390,0.1410,1.0020,-10.7330,33.4350,-35.3740,32.5800
3.5971,0.2010,0.1420,0.9700,-12.6560,31.5730,-35.5570,32.5300
3.6037,0.2010,0.1400,0.9730,-14.0310,27.0530,-35.2210,32.4800
3.6163,0.2040,0.1460,0.9740,-14.7790,26.3050,-35.9240,32.4800
3.6280,0.2040,0.1660,0.9960,-15.3890,24.1680,-37.6950,32.5300
3.6352,0.1660,0.1570,1.0070,-15.8930,23.6950,-40.1370,32.5800
3.6470,0.1050,0.1430,1.0440,-15.2670,18.5340,-41.1600,32.6200
3.6542,0.0730,0.1200,1.0570,-12.3360,15.4810,-40.7480,32.5800
3.6661,0.0590,0.1150,1.0520,-8.9160,8.2900,-39.2670,32.5300
3.6732,0.1050,0.1220,1.0090,-9.3130,10.3360,-36.4580,32.5800
3.6854,0.1040,0.1180,1.0020,-10.7630,7.6030,-31.9690,32.5800
3.6976,0.1820,0.1320,1.0540,-13.1150,13.2670,-26.7630,32.5300
3.7046,0.2370,0.1260,1.1360,-11.6180,17.1150,-26.3820,32.6700
3.7167,0.2940,0.1310,1.2040,-5.6030,15.5110,-30.3660,32.5300
3.7240,0.3120,0.1650,1.1600,-1.1600,24.9310,-36.5340,32.5800
3.7358,0.2630,0.2290,1.0680,-2.0150,18.5190,-42.4890,32.5300
3.7479,0.1750,0.1750,1.0440,11.4810,-9.0990,-47.0990,32.5800
3.7550,0.1910,0.2350,0.9090,-1.3130,14.4890,-43.2670,32.6700
3.7673,0.2330,0.2050,1.0200,-5.9240,15.1760,-41.6950,32.5300
3.7743,0.0890,0.0350,1.0850,3.4050,-28.3970,-42.9620,32.5800
3.7863,0.3110,0.1570,0.9660,-6.0150,8.6870,-38.1370,32.5300
3.7935,0.2240,0.1360,0.9480,-14.1370,-4.0760,-40.9920,32.5800
3.8056,0.2110,0.1340,1.0510,-23.8930,-3.1150,-41.4810,32.6200
3.8178,0.1610,0.1080,1.2150,-16.5340,-1.6180,-39.0530,32.5800
3.8249,0.1860,0.0970,1.1910,-12.6870,7.4200,-35.9240,32.5300
3.8368,0.2540,0.1050,1.2330,-3.8780,7.6030,-32.9310,32.5300
3.8437,0.3070,0.0830,1.0840,-7.8630,20.2440,-32.5500,32.5800
3.8559,0.2590,0.0950,1.0980,-16.3660,13.4660,-32.5500,32.6200
3.8616,0.3210,0.1220,1.1120,-16.0610,11.7100,-33.2060,32.5800
3.8750,0.3380,0.1210,1.1470,-13.7560,3.8930,-35.9390,32.6200
3.8871,0.3170,0.1200,1.2110,-10.1530,4.8550,-37.9850,32.4800
3.8942,0.2880,0.0680,1.2630,5.4050,-10.9310,-40.0000,32.5300
3.9065,0.5020,0.1450,1.1060,6.0150,22.0310,-40.4270,32.5300
3.9137,0.3740,0.2160,1.0500,-2.2600,10.2440,-46.7630,32.4800
3.9259,0.2840,0.2080,1.1330,-8.1980,8.2290,-48.0610,32.6200
3.9380,0.2670,0.2370,1.1670,-5.5420,6.9010,-46.8700,32.4800
3.9452,0.2180,0.1970,1.1840,3.6490,-3.9240,-46.9010,32.5300
3.9573,0.2890,0.2410,1.1820,0.6410,6.5040,-38.6870,32.4800
3.9647,0.3090,0.2320,1.1230,-8.2900,8.2600,-35.8470,32.6200
3.9767,0.3230,0.2400,1.0880,-19.9540,13.0080,-34.1530,32.5300
3.9837,0.2940,0.2330,1.0910,-30.6560,10.2290,-33.4960,32.4800
3.9959,0.3130,0.2260,1.1560,-30.5950,12.6720,-34.4580,32.4400
