Time,AX,AY,AZ,GX,GY,GZ,T
0.0000,0.3600,0.0280,1.0430,-35.0230,43.0380,-36.5950,33.0000
0.0004,0.3750,-0.0350,1.1450,-35.0080,39.0840,-40.4580,32.9500
0.0009,0.3850,-0.0830,1.2230,-29.1150,40.2440,-44.9310,33.0000
0.0013,0.3600,-0.1010,1.2220,-27.4960,44.8850,-47.9390,32.9100
0.0017,0.3460,-0.0770,1.2130,-27.4660,46.1980,-49.2520,32.9500
0.0022,0.2930,-0.0580,1.1960,-26.7790,48.8090,-48.3210,33.0000
0.0026,0.2620,-0.0660,1.1790,-26.8550,48.7480,-45.0990,32.9500
0.0031,0.2570,-0.0790,1.1930,-29.3280,43.0840,-42.3510,33.0000
0.0035,0.2790,-0.1170,1.2640,-24.2600,37.3890,-43.3590,32.9500
0.0040,0.2830,-0.1180,1.2130,-22.8090,41.6180,-43.9850,33.0000
0.0044,0.2360,-0.1120,1.1950,-22.0150,38.2290,-44.7330,33.0000
0.0055,0.2050,-0.1090,1.1830,-21.1150,40.1530,-44.3050,33.0500
0.0060,0.1770,-0.1000,1.1620,-20.6410,35.4660,-43.6790,32.9100
0.0064,0.1590,-0.1000,1.1540,-19.7250,33.0380,-42.9010,32.9500
0.0068,0.1620,-0.1180,1.1260,-20.8090,30.1530,-42.3820,33.0000
0.0072,0.2110,-0.1170,1.1020,-26.0000,29.3440,-42.2600,32.9100
0.0076,0.2390,-0.1450,1.1700,-27.6640,26.1980,-44.7180,33.0000
0.0079,0.2430,-0.1750,1.2270,-25.2520,24.8700,-47.0690,33.0000
0.0083,0.2300,-0.1770,1.2430,-23.1910,22.0310,-47.9240,32.9500
0.0087,0.2240,-0.1700,1.2480,-22.3360,22.9920,-46.2600,33.0000
0.0091,0.2260,-0.1660,1.2710,-18.9770,22.6260,-43.2820,32.9500
0.0094,0.2340,-0.1670,1.2470,-16.9160,25.7100,-39.3890,32.8600
0.0098,0.2430,-0.1710,1.2440,-15.0380,23.4350,-36.7940,33.0000
0.0102,0.2750,-0.1670,1.2360,-14.2900,24.1370,-36.1070,32.9500
0.0105,0.3120,-0.1590,1.2210,-13.2210,20.0920,-40.1830,33.0000
0.0109,0.3250,-0.1470,1.1850,-12.7180,18.4270,-46.0760,32.9500
0.0112,0.2920,-0.1380,1.1710,-13.7710,13.6180,-51.4050,32.9500
0.0115,0.3220,-0.1030,1.1980,-21.4810,22.0310,-52.9620,32.9100
0.0119,0.2290,-0.1360,1.2490,-24.3510,-7.5270,-53.8020,32.9500
0.0122,0.2460,-0.1470,1.1670,-23.4660,-3.4050,-52.8550,33.0900
0.0134,0.2610,-0.1610,1.1940,-16.7480,11.5110,-49.2370,32.9500
0.0139,0.2500,-0.1640,1.2320,-17.9080,18.9620,-46.9770,33.0000
0.0143,0.2960,-0.1740,1.1800,-20.3660,20.4120,-46.1680,33.0000
0.0148,0.2460,-0.1890,1.2430,-17.5110,20.8090,-44.9770,32.9500
0.0152,0.2750,-0.1880,1.2330,-10.5190,18.5650,-44.9770,33.0000
0.0156,0.2600,-0.1880,1.2320,-7.8470,26.2900,-44.7180,32.9500
0.0160,0.2390,-0.1880,1.2270,-5.0990,21.5880,-46.0460,33.0000
0.0164,0.2100,-0.1770,1.1890,-5.2370,23.2210,-46.1220,33.0000
0.0167,0.2580,-0.1540,1.1550,-7.0230,22.7940,-46.1680,32.8600
0.0171,0.2510,-0.1290,1.1600,-11.9540,17.2060,-46.3360,33.0000
0.0174,0.2460,-0.1420,1.1510,-12.9770,14.3970,-47.2520,33.0500
0.0177,0.2500,-0.1570,1.1990,-13.2670,19.9240,-45.3130,33.0000
0.0180,0.2640,-0.1590,1.1870,-13.5110,24.5500,-44.7630,32.9500
0.0185,0.2310,-0.1730,1.2000,-12.2750,18.8550,-46.0310,32.9100
0.0190,0.2510,-0.1580,1.2000,-14.0310,20.4730,-46.9010,33.0000
0.0193,0.2580,-0.1780,1.2130,-12.7330,22.1980,-46.9770,33.0500
0.0201,0.2790,-0.2090,1.2750,-9.5110,26.9770,-45.1300,32.9100
0.0208,0.2670,-0.2550,1.3250,-3.0230,31.4500,-43.4960,33.0500
0.0212,0.2990,-0.2580,1.3200,3.1300,33.7710,-42.6260,33.0000
0.0242,0.3190,-0.2280,1.2950,5.6950,35.8020,-44.0610,33.0000
0.0247,0.2890,-0.1770,1.2510,4.4730,35.3130,-45.1450,33.0000
0.0250,0.2760,-0.1570,1.1810,2.0000,35.5880,-45.5420,33.0000
0.0254,0.2530,-0.1430,1.1610,-2.3970,34.7480,-44.7940,32.9500
0.0258,0.2510,-0.1400,1.1710,-5.9080,36.3210,-44.4270,33.0000
0.0261,0.2440,-0.1370,1.1670,-9.3890,35.6030,-45.5110,32.8600
0.0264,0.2340,-0.1620,1.2090,-8.4430,36.6410,-46.9310,32.9500
0.0268,0.1890,-0.2070,1.2910,-2.3210,29.2520,-48.2440,33.0000
0.0272,0.2140,-0.2220,1.2570,3.5880,25.1150,-48.7180,33.0500
0.0275,0.2250,-0.1960,1.2290,3.9390,27.0690,-47.4810,33.0000
0.0280,0.2560,-0.1740,1.2150,3.8630,28.3360,-46.5800,33.0500
0.0283,0.2580,-0.1690,1.1940,3.6340,34.1220,-45.7100,33.0000
0.0287,0.2450,-0.1630,1.1720,1.2370,35.0080,-45.2370,33.0000
0.0290,0.2370,-0.1440,1.1470,-1.6030,34.2600,-46.8400,32.9500
0.0294,0.2210,-0.1370,1.1470,-3.5880,33.4500,-49.2060,33.0000
0.0305,0.2100,-0.1710,1.1910,-2.4270,29.5570,-51.4500,33.0500
0.0308,0.1760,-0.1980,1.2150,1.6030,25.5880,-52.6110,33.0000
0.0311,0.1730,-0.2090,1.1910,5.3440,21.3440,-52.9310,33.0500
0.0316,0.1880,-0.1840,1.1410,3.9390,23.1760,-50.8850,32.9500
0.0319,0.2070,-0.1530,1.1250,1.6180,22.6110,-49.6790,33.0000
0.0323,0.1940,-0.1450,1.1050,0.8550,24.8090,-47.4500,33.0500
0.0326,0.2000,-0.1470,1.0800,-1.7250,25.1760,-45.3280,32.9100
0.0329,0.2280,-0.1510,1.1180,-2.1070,24.5340,-43.8930,33.0500
0.0334,0.2300,-0.1640,1.1350,0.3970,21.9080,-45.1910,33.0000
0.0338,0.2270,-0.1560,1.1130,2.7630,23.0380,-45.7100,33.0000
0.0341,0.2300,-0.1330,1.0650,1.0380,24.4120,-45.7710,33.0500
0.0345,0.2520,-0.1150,1.0470,-1.9690,26.5500,-45.8470,33.0000
0.0350,0.2480,-0.1230,1.0610,-3.5730,28.9160,-45.9540,33.0500
0.0353,0.2420,-0.1240,1.0650,-4.1370,28.9010,-46.9620,33.0000
0.0361,0.2060,-0.1400,1.0640,-4.7330,23.5570,-48.1830,32.9500
0.0368,0.2120,-0.1470,1.0660,-5.8020,19.0380,-48.4580,32.9500
0.0372,0.2390,-0.1450,1.0650,-7.6490,21.4200,-47.8320,33.0000
0.0375,0.2610,-0.1590,1.0780,-7.0530,24.5650,-47.8470,32.8600
0.0379,0.2390,-0.1610,1.0850,-8.2900,26.7180,-47.6790,32.9100
0.0386,0.2140,-0.1860,1.1400,-4.7790,21.6340,-49.3130,32.9500
0.0388,0.2090,-0.1830,1.0830,-4.3970,22.1370,-50.0310,33.0000
0.0390,0.2010,-0.1720,1.0990,-7.4050,16.9770,-50.0150,33.0000
0.0394,0.2370,-0.1850,1.1310,-6.6110,18.8240,-49.6490,32.9500
0.0398,0.2420,-0.1940,1.1240,-6.1220,22.3050,-50.6870,33.0000
0.0401,0.2590,-0.1900,1.0950,-7.2370,21.1600,-53.5880,32.9500
0.0404,0.2450,-0.1910,1.1320,-7.1910,21.2520,-55.5110,33.0000
0.0409,0.2330,-0.2240,1.1660,-3.4350,20.1220,-56.0460,32.9500
0.0413,0.2220,-0.2310,1.1260,-3.0230,25.8320,-54.2900,33.0000
0.0417,0.2100,-0.2020,1.1410,-4.3820,28.0610,-53.4200,33.0000
0.0420,0.2150,-0.2050,1.1730,-2.9310,25.2670,-55.2670,33.0500
0.0425,0.2170,-0.2150,1.2000,0.4580,25.9540,-57.4050,33.0000
0.0429,0.2240,-0.2300,1.2030,2.7940,23.7100,-60.3970,32.9500
0.0433,0.2200,-0.2100,1.2190,4.3210,24.7480,-64.1830,32.9100
0.0437,0.2070,-0.1830,1.1840,4.2440,26.9310,-65.6640,33.0000
0.0441,0.2200,-0.1510,1.1740,2.3360,31.7400,-65.4810,33.0000
0.0444,0.2130,-0.1460,1.1620,0.2290,34.7630,-65.3590,32.9100
0.0447,0.1850,-0.1510,1.1890,-0.3820,34.1370,-65.4810,32.9500
0.0451,0.1720,-0.1640,1.1970,-0.5650,38.1530,-64.9470,33.0000
0.0455,0.1270,-0.1720,1.2340,1.1300,32.3360,-65.2520,32.9500
0.0458,0.1360,-0.1770,1.2090,1.2210,31.2370,-64.1830,33.0500
0.0461,0.1620,-0.1710,1.2050,-0.0920,28.0150,-63.7560,32.9100
0.0463,0.2340,-0.1680,1.2570,2.0150,24.0760,-67.6490,33.0500
0.0469,0.2870,-0.1700,1.2430,4.9470,28.7630,-74.3970,33.0000
0.0471,0.2350,-0.1510,1.2190,5.7250,26.6110,-80.5950,33.0500
0.0473,0.1930,-0.1400,1.1680,3.2370,27.3590,-84.6720,33.0000
0.0475,0.0900,-0.1470,1.1420,0.3360,24.0760,-83.5730,33.0000
0.0477,-0.0020,-0.1660,1.1160,-4.6110,19.3740,-75.6950,33.0500
0.0479,-0.0270,-0.2020,1.2100,-7.5110,12.8400,-64.0000,33.0900
0.0480,0.0670,-0.2230,1.2480,-4.2900,9.7400,-54.8550,32.9500
0.0482,0.1890,-0.2050,1.2350,-1.3130,13.6180,-51.2520,33.0000
0.0486,0.2300,-0.1850,1.2540,4.6110,24.2140,-51.4200,33.0500
0.0489,0.2160,-0.1370,1.1610,7.2520,28.0000,-52.0310,32.9500
0.0493,0.2070,-0.0940,1.0960,4.4580,26.3050,-51.8320,33.0000
0.0496,0.1830,-0.0800,1.0850,1.4810,22.5190,-51.2820,32.9500
0.0501,0.2200,-0.0880,1.0980,0.0310,18.1370,-50.5650,33.0000
0.0504,0.3480,-0.1100,1.1670,0.6410,17.2980,-55.0990,33.0500
0.0508,0.3670,-0.1290,1.1800,3.4200,22.5500,-61.0380,33.0000
0.0512,0.3090,-0.1390,1.1830,5.8470,28.9160,-63.5110,33.0000
0.0516,0.2480,-0.1120,1.1260,6.3360,34.1530,-60.5190,33.0500
0.0521,0.2220,-0.0810,1.0800,2.7480,35.8930,-55.9540,33.0900
0.0524,0.2150,-0.0760,1.1040,-0.2440,33.6490,-52.6410,33.0500
0.0526,0.2440,-0.0850,1.1040,-1.3890,34.6410,-52.3660,33.0900
0.0528,0.2380,-0.0840,1.0930,-4.6260,32.5340,-54.5950,32.9500
0.0529,0.1910,-0.0710,1.0810,-7.3280,31.7100,-56.6720,33.0500
0.0531,0.1410,-0.0700,1.0640,-9.2820,29.2520,-56.9920,33.0000
0.0533,0.1210,-0.0910,1.0970,-10.7330,23.3280,-56.1220,33.0500
0.0535,0.1040,-0.1410,1.1720,-8.0310,17.2370,-55.1760,33.0000
0.0537,0.0940,-0.1760,1.1940,-1.9690,15.9850,-51.7710,33.0500
0.0538,0.1250,-0.1650,1.1620,-1.5270,18.6410,-47.5730,33.0000
0.0540,0.1620,-0.1430,1.1510,-2.2290,18.6110,-46.0150,33.0000
0.0542,0.1480,-0.1200,1.1030,-4.2290,20.5340,-43.9390,33.0500
0.0544,0.1450,-0.1210,1.1090,-6.0310,18.2140,-42.6560,33.0000
0.0545,0.1850,-0.1230,1.1230,-7.8630,17.5110,-43.6790,33.0500
0.0548,0.1740,-0.1240,1.1100,-11.0840,15.8630,-45.9690,32.9100
0.0551,0.2280,-0.1250,1.1340,-14.7020,14.6260,-48.2290,32.9500
0.0553,0.3280,-0.1710,1.2270,-12.1830,19.6340,-56.0310,32.9100
0.0555,0.2590,-0.1750,1.2380,-3.9690,21.7560,-61.8320,33.0000
0.0557,0.1320,-0.1720,1.1350,-4.3210,24.9470,-58.4120,33.0500
0.0558,0.1090,-0.1790,1.1870,-4.3050,19.4810,-51.4960,33.0900
0.0560,0.1460,-0.1890,1.1900,-1.4350,22.0150,-44.7020,33.0500
0.0562,0.1690,-0.1880,1.1790,-0.2140,24.3510,-40.7020,33.0000
0.0564,0.2000,-0.1660,1.1600,-1.1300,25.7560,-40.3970,32.9100
0.0565,0.2050,-0.1370,1.1160,-3.4660,23.4200,-43.2370,33.0000
0.0568,0.1860,-0.1120,1.0860,-6.6260,19.8780,-46.3660,33.0900
0.0570,0.1590,-0.1130,1.0650,-11.8020,15.6490,-47.6950,33.0500
0.0572,0.1570,-0.1390,1.1230,-15.3440,13.9540,-46.2140,33.0000
0.0574,0.1860,-0.1630,1.1880,-14.9920,16.9470,-44.0150,32.9500
0.0575,0.2220,-0.1850,1.1910,-12.5040,21.7860,-43.6640,33.0500
0.0580,0.2210,-0.2140,1.2680,-6.3510,22.8850,-45.0380,33.0900
0.0584,0.2020,-0.2050,1.2210,-1.0080,25.7710,-45.0840,33.1400
0.0585,0.1870,-0.1690,1.1880,0.9470,22.0460,-44.7330,33.0000
0.0587,0.2030,-0.1340,1.1360,0.2290,21.5110,-43.6340,32.9500
0.0589,0.1110,-0.1440,1.1480,-1.1150,25.1300,-45.6490,33.0500
0.0591,0.1070,-0.1390,1.1260,-3.7860,26.0460,-44.2750,33.0000
0.0593,0.1150,-0.1370,1.1390,-5.7250,27.0230,-42.8850,33.0500
0.0594,0.1360,-0.1450,1.1710,-5.2980,28.5340,-42.6260,33.0500
0.0596,0.1180,-0.1580,1.1560,-5.4660,30.0000,-42.8550,33.0000
0.0598,0.1020,-0.1530,1.1860,-5.4660,24.5950,-43.1150,33.0500
0.0676,0.1310,-0.1620,1.2010,-3.3440,24.9620,-42.9470,33.0000
0.0743,0.1150,-0.1610,1.2070,-2.1370,25.1600,-42.5340,33.0500
0.0865,0.1060,-0.1640,1.1990,-1.8020,25.5420,-41.6790,33.0900
0.0933,0.1120,-0.1670,1.1950,-1.8630,28.0760,-41.0230,33.0000
0.1055,0.1080,-0.1720,1.2100,-1.6340,27.1600,-40.4730,33.0500
0.1176,0.0900,-0.1460,1.2080,-2.6560,30.0920,-37.6180,33.0000
0.1245,0.0980,-0.1500,1.2140,-4.3510,37.6030,-31.5570,32.9500
0.1366,0.1150,-0.1590,1.2790,-3.1150,44.9920,-27.3740,33.0000
0.1435,0.1340,-0.1490,1.2590,-1.9080,50.3510,-27.2520,33.0500
0.1555,0.1150,-0.1440,1.2460,-2.3820,47.0080,-30.9160,33.0000
0.1679,0.0970,-0.1460,1.2420,-0.9620,41.1910,-36.2440,33.0000
0.1746,0.0880,-0.1460,1.2500,1.2060,29.6640,-39.9240,33.0500
0.1868,0.1000,-0.1440,1.2420,0.6260,29.8630,-39.4660,33.0000
0.1939,0.1280,-0.1570,1.2760,-0.9620,34.9770,-37.1760,33.0500
0.2061,0.1250,-0.1760,1.2970,0.2140,44.9310,-33.7250,33.0000
0.2183,0.1180,-0.1880,1.3080,3.2210,49.3280,-31.4200,33.0500
0.2252,0.1050,-0.1520,1.2980,5.6790,49.8630,-32.5950,33.0900
0.2373,0.0380,-0.1480,1.2220,5.9390,45.8020,-35.2210,33.0000
0.2444,0.0170,-0.1180,1.1800,2.3660,38.9620,-37.2060,33.0500
0.2567,0.0290,-0.1310,1.2020,0.3660,28.0000,-38.1370,33.0000
0.2637,0.0680,-0.1430,1.2170,1.6030,26.6410,-38.5650,33.0500
0.2760,0.0630,-0.1450,1.2220,0.6720,25.8470,-39.4350,33.0900
0.2884,0.0740,-0.1580,1.2340,-0.4430,24.4120,-39.3740,33.0000
0.2952,0.0820,-0.1850,1.3140,6.0920,23.6030,-41.0990,33.0000
0.3072,0.0630,-0.2120,1.2900,11.4050,22.9920,-41.2060,33.0000
0.3144,0.0640,-0.1920,1.2580,15.6640,22.0610,-41.6030,32.9500
0.3265,0.0460,-0.1560,1.1850,13.4660,26.1370,-42.2440,33.0900
0.3387,0.0400,-0.1130,1.1410,12.9470,25.1760,-43.8020,33.0500
0.3453,0.0180,-0.1130,1.1300,10.2600,15.9850,-46.0610,33.0500
0.3576,0.0540,-0.0960,1.0990,4.9920,14.3820,-48.3660,33.0000
0.3646,0.0730,-0.1040,1.1410,1.5110,10.7630,-51.0230,32.9500
0.3767,0.0630,-0.0770,1.1200,-2.6720,18.7180,-48.7480,33.0000
0.3838,0.0090,-0.1150,1.2170,-0.7180,12.1980,-46.7480,33.0500
0.3957,0.0340,-0.1600,1.2250,6.5190,12.4730,-44.5950,33.0000
0.4078,0.0610,-0.1740,1.1780,7.8170,11.8470,-44.6560,33.0900
0.4150,0.0460,-0.1630,1.1810,8.5190,13.4960,-44.1220,33.0500
0.4270,0.0270,-0.1440,1.1680,9.0690,15.2980,-42.7940,33.0900
0.4343,0.0100,-0.1280,1.1380,8.5190,12.9770,-40.3210,33.0500
0.4461,0.0500,-0.1080,1.1130,5.6180,11.4960,-39.1150,33.0900
0.4584,0.0480,-0.0890,1.0950,1.7400,10.3510,-39.1300,33.0500
0.4652,0.0350,-0.0940,1.0730,-0.3820,2.3050,-39.0380,33.0500
0.4776,0.1140,-0.1070,1.2090,0.2900,10.6110,-39.6180,33.0000
0.4847,0.1260,-0.1310,1.1960,6.8400,10.4270,-42.4890,33.0500
0.4969,0.1030,-0.0910,1.0850,4.3510,14.6560,-43.7860,33.0000
0.5040,0.0560,-0.0900,1.1150,1.4200,10.3360,-43.2980,33.0500
0.5159,0.0720,-0.1160,1.1680,4.6410,8.1980,-43.1450,33.0900
0.5282,0.0910,-0.1200,1.1290,5.9690,11.0840,-43.6030,33.0900
0.5352,0.0770,-0.1340,1.1400,2.8400,9.5270,-43.6030,33.0500
0.5474,0.0800,-0.1350,1.1860,3.3280,12.0920,-43.1760,33.0900
0.5545,0.0930,-0.1300,1.1510,3.5110,16.0310,-42.5950,33.0500
0.5668,0.0820,-0.1150,1.1330,1.9690,16.5040,-42.4270,33.0000
0.5739,0.0810,-0.1100,1.1430,0.5500,16.9470,-41.6490,33.0500
0.5859,0.0830,-0.1190,1.1800,3.4660,13.2670,-41.1600,33.0500
0.5989,0.1100,-0.1350,1.1670,6.0460,13.4960,-40.3820,33.0900
0.6051,0.1560,-0.1490,1.1360,4.3660,16.9920,-40.1680,33.0500
0.6171,0.1820,-0.1240,1.1590,3.3280,16.0310,-40.9470,33.0900
0.6244,0.1700,-0.1200,1.1880,3.5420,22.1680,-43.4960,33.0500
0.6367,0.1360,-0.1190,1.1560,6.3820,18.2900,-45.8930,33.0900
0.6424,0.1130,-0.1390,1.2150,7.9240,17.4350,-47.8320,33.0000
0.6558,0.0890,-0.1450,1.1870,12.4580,16.7940,-47.3740,33.0500
0.6679,0.0990,-0.1450,1.2100,13.5420,17.1600,-45.7400,33.0900
0.6746,0.1080,-0.1360,1.2000,15.2520,21.5880,-43.5570,33.1400
0.6869,0.0840,-0.1040,1.1620,14.3360,23.1600,-41.3740,33.0900
0.6938,0.0870,-0.0720,1.1170,10.3510,20.2600,-40.3360,32.9500
0.7059,0.0940,-0.0070,1.1360,2.1070,23.5570,-40.5800,33.0000
0.7180,0.0870,-0.0500,1.1070,3.7710,11.6790,-42.6870,33.0900
0.7252,0.0970,-0.0420,1.1250,4.0150,16.1370,-47.1300,33.0500
0.7373,0.0740,-0.0510,1.1320,2.8550,7.2370,-48.4270,33.0900
0.7446,0.1060,-0.0470,1.1180,-1.6340,10.7480,-48.7940,32.9500
0.7564,0.1080,-0.0540,1.1570,-2.2140,10.6720,-48.0610,33.0000
0.7685,0.1250,-0.0760,1.1940,-1.2820,15.1150,-46.6110,33.0500
0.7753,0.1250,-0.0750,1.1770,0.4270,17.9850,-45.7250,33.0000
0.7875,0.0980,-0.0710,1.1490,-0.5040,18.7480,-44.5950,33.0000
0.7948,0.1200,-0.0850,1.1880,0.8240,19.5570,-43.9240,32.9500
0.8069,0.1250,-0.0950,1.2210,4.9770,22.2900,-45.2210,33.0000
0.8139,0.1130,-0.0900,1.1790,7.1760,24.1070,-45.4810,33.0500
0.8260,0.0900,-0.0600,1.1480,4.7480,25.2210,-45.2670,33.0000
0.8380,0.0640,-0.0460,1.1270,2.6110,24.0000,-43.2520,33.0000
0.8452,0.0820,-0.0420,1.1220,-0.3210,25.2980,-40.9770,33.0000
0.8573,0.0930,-0.0610,1.1650,-1.2060,19.1450,-41.0530,33.0000
0.8644,0.0760,-0.0610,1.1530,-2.0610,20.8240,-39.3890,33.0500
0.8764,0.0720,-0.0510,1.1410,-4.7790,20.0610,-37.9390,33.0000
0.8883,0.1060,-0.0460,1.1610,-5.9540,20.3970,-37.5880,33.0000
0.8953,0.1280,-0.0830,1.1030,-3.1150,29.8930,-40.0460,33.0500
0.9072,0.0740,-0.0330,1.1700,-14.7940,41.3280,-41.0380,33.0000
0.9141,0.0320,-0.0850,1.4120,2.8550,2.6870,-44.7180,33.0500
0.9266,0.1290,-0.0960,1.2040,11.5730,20.0150,-43.5880,33.0000
0.9386,0.0960,-0.0540,1.1130,4.6410,18.2140,-42.3660,32.9500
0.9456,0.0920,-0.0710,1.1730,-0.6560,15.7710,-39.6790,33.0000
0.9578,0.0990,-0.0750,1.2190,2.7330,17.7860,-35.6950,33.0000
0.9648,0.1260,-0.0600,1.1780,3.7710,20.8400,-34.5040,33.0500
0.9769,0.1340,-0.0520,1.1560,-0.2290,20.7630,-36.5190,33.0000
0.9840,0.1440,-0.0650,1.2000,0.5800,18.9620,-39.9850,32.9500
0.9962,0.1570,-0.0860,1.2260,4.9010,15.6640,-44.1680,33.0000
1.0082,0.1400,-0.1060,1.2330,9.2210,11.5880,-48.4890,33.0500
1.0149,0.1120,-0.0900,1.1790,8.2290,12.9470,-49.5880,33.0500
1.0271,0.0730,-0.0810,1.1670,6.1530,13.2370,-47.8780,33.0900
1.0341,0.1030,-0.0800,1.1840,5.2820,14.6110,-45.2370,32.9500
1.0463,0.1150,-0.0820,1.1970,5.2670,18.3050,-45.2060,33.0900
1.0532,0.0900,-0.0820,1.1710,4.0150,18.9920,-45.0840,32.9500
1.0654,0.0790,-0.0760,1.1920,2.5190,16.9920,-44.4890,32.9500
1.0779,0.0850,-0.0690,1.1850,3.8780,15.3590,-44.4120,33.0000
1.0845,0.0790,-0.0630,1.1660,2.9620,15.7710,-44.4580,33.0500
1.0967,0.1010,-0.0770,1.1630,-0.0310,12.3510,-44.2900,33.0000
1.1037,0.1160,-0.0900,1.2160,-0.5190,11.9540,-44.3210,33.0500
1.1158,0.1380,-0.0960,1.2450,2.3050,7.9850,-45.0690,32.9100
1.1283,0.1260,-0.0890,1.2870,4.5650,9.6490,-45.2820,33.0000
1.1353,0.1220,-0.0870,1.2430,7.5270,15.6030,-43.8630,33.0500
1.1476,0.1070,-0.0950,1.2740,9.6180,12.4120,-42.1830,32.9100
1.1544,0.1200,-0.1000,1.2660,15.9390,14.9770,-41.5420,32.9500
1.1666,0.1010,-0.0660,1.1940,18.6560,10.5650,-41.6950,33.0000
1.1734,0.1300,-0.0350,1.1190,12.6110,7.0690,-42.9770,33.0500
1.1857,0.1310,-0.0330,1.1400,9.6340,5.2060,-45.2370,33.0000
1.1983,0.1310,-0.0270,1.1320,7.2370,2.9920,-46.2140,33.0900
1.2054,0.1420,-0.0230,1.1410,3.3280,5.0990,-46.3510,33.0500
1.2174,0.1290,-0.0600,1.1400,1.4660,7.1300,-46.6560,33.0000
1.2243,0.1170,-0.0380,1.2090,2.0610,7.5880,-45.6490,33.0500
1.2368,0.1230,-0.0820,1.2430,5.5420,10.9160,-43.9240,33.0900
1.2440,0.1210,-0.0890,1.2390,9.4200,12.6110,-42.9920,33.0500
1.2559,0.1110,-0.0900,1.2110,11.8020,12.9010,-41.1450,33.0000
1.2683,0.1400,-0.0640,1.1920,13.5420,13.1150,-40.6720,33.0000
1.2749,0.1580,-0.0320,1.1620,13.7250,14.8700,-40.5500,33.0500
1.2871,0.1500,-0.0110,1.1170,11.9850,13.5110,-40.4120,33.0000
1.2939,0.1520,-0.0030,1.1180,10.0760,10.8090,-40.4270,33.1400
1.3062,0.1940,-0.0050,1.1060,8.8700,12.6560,-40.8850,33.0500
1.3185,0.2220,-0.0060,1.1020,5.6490,13.8170,-42.8850,33.0000
1.3252,0.2160,-0.0140,1.0990,6.2750,14.9920,-46.0310,33.0500
1.3374,0.1740,-0.0350,1.1650,6.2290,17.2060,-47.5730,33.0000
1.3445,0.1490,-0.0300,1.1710,10.0150,17.3890,-46.8850,33.0500
1.3569,0.1420,-0.0120,1.1200,9.0690,20.1830,-45.0690,33.0900
1.3639,0.1490,0.0000,1.1190,7.6950,17.3740,-45.0230,33.0900
1.3762,0.1350,-0.0090,1.1180,6.8850,17.4810,-45.6030,33.0500
1.3883,0.1060,-0.0050,1.1240,5.9390,13.8630,-45.7400,32.9100
1.3952,0.1230,0.0070,1.1090,4.1070,13.2370,-45.0080,32.9500
1.4075,0.1490,0.0060,1.1200,3.4500,14.2290,-44.9920,33.0000
1.4148,0.1540,-0.0010,1.1400,4.5800,15.7560,-46.2900,33.0500
1.4268,0.1730,-0.0230,1.1210,4.7790,19.1600,-46.0920,33.0500
1.4338,0.2090,0.0800,1.1180,-8.7940,40.9920,-42.5650,33.0900
1.4457,0.1480,-0.0250,1.3200,6.7630,5.7560,-45.1450,33.0500
1.4583,0.2530,-0.0100,1.1530,8.9920,28.5500,-42.5950,33.0000
1.4652,0.2020,0.0390,1.1020,5.4050,26.5800,-44.4120,33.0500
1.4776,0.1870,0.0300,1.0700,0.6720,25.2670,-46.2440,33.0000
1.4848,0.1120,0.0180,1.1540,1.8320,19.4350,-47.3280,33.0900
1.4971,0.1470,0.0080,1.1400,4.8400,16.1680,-48.4120,33.0500
1.5040,0.1390,0.0060,1.1440,3.4200,16.4890,-48.8700,33.0000
1.5161,0.1360,-0.0130,1.1710,5.4660,15.0840,-48.9770,33.0500
1.5283,0.1140,-0.0080,1.1550,6.7630,21.3590,-46.3050,33.0000
1.5355,0.1180,-0.0040,1.1410,6.8400,21.6340,-43.6180,33.0500
1.5475,0.1250,0.0310,1.1150,3.7710,25.9540,-40.5500,33.0500
1.5546,0.1550,0.0370,1.1310,1.8320,24.2290,-39.0840,33.0000
1.5668,0.1810,0.0510,1.1480,0.8400,23.8170,-40.9470,33.0500
1.5740,0.1810,0.0600,1.1400,-0.2750,21.8170,-43.6490,33.0900
1.5862,0.1620,0.0330,1.1960,1.2060,18.6410,-45.7250,33.1400
1.5985,0.1540,0.0080,1.2070,6.5190,19.4960,-46.4270,33.0000
1.6058,0.1320,0.0290,1.1090,3.0230,22.6260,-45.4050,33.0000
1.6179,0.1270,0.0420,1.1270,1.1910,15.5270,-44.6870,33.0500
1.6248,0.1520,0.0250,1.1970,2.0760,14.8700,-43.9080,33.0000
1.6369,0.1680,0.0270,1.1710,3.3130,17.6030,-44.5190,32.9500
1.6442,0.1460,0.0340,1.1390,-0.4890,16.4120,-45.1450,33.0000
1.6564,0.1420,0.0320,1.1410,-4.5950,16.2900,-43.9690,33.0500
1.6685,0.1480,0.0220,1.1390,-6.0610,13.8780,-44.0310,33.0900
1.6755,0.1330,0.0010,1.2190,-5.7250,12.5800,-43.9240,33.0000
1.6878,0.1380,0.0120,1.2030,-3.6490,13.2210,-43.2060,33.0500
1.6950,0.1450,0.0050,1.1840,-5.2980,15.5880,-41.4200,33.0000
1.7071,0.1910,-0.0000,1.2550,-2.2140,13.0230,-41.8320,32.9500
1.7141,0.2000,-0.0120,1.2020,0.3210,16.3050,-42.7330,33.0500
1.7261,0.2010,-0.0080,1.2100,-0.2290,13.5880,-43.3280,33.0000
1.7383,0.2160,-0.0160,1.2500,3.7560,13.6340,-45.5570,33.0900
1.7453,0.2060,-0.0160,1.2340,8.2290,13.3440,-47.7250,33.0900
1.7573,0.1990,-0.0010,1.1750,8.5650,14.7330,-49.0230,33.0500
1.7646,0.1660,0.0020,1.1480,5.2980,14.3970,-48.6410,33.0000
1.7767,0.1460,-0.0050,1.1620,3.1150,13.3280,-48.2600,33.0000
1.7838,0.1550,-0.0210,1.1870,2.6870,13.0380,-47.7710,33.0500
1.7959,0.1530,-0.0380,1.2130,4.4580,13.0690,-46.9620,33.0000
1.8080,0.1420,-0.0180,1.2470,4.4270,15.8930,-45.9080,33.0500
1.8152,0.1090,-0.0170,1.2040,7.0690,18.8400,-43.2370,33.0900
1.8274,0.1320,0.0050,1.1810,4.5650,17.7250,-39.6950,33.0500
1.8345,0.1760,0.0290,1.1850,3.4660,17.7710,-38.5950,33.0500
1.8467,0.2130,0.0190,1.1950,3.1600,16.4120,-39.7560,33.0900
1.8538,0.2280,0.0350,1.1810,1.6640,16.5500,-42.0460,33.0500
1.8658,0.2230,0.0170,1.1860,-0.1830,13.2980,-45.4500,33.0900
1.8780,0.1950,-0.0050,1.2570,2.4730,8.4580,-47.6180,32.9500
1.8851,0.2120,-0.0350,1.2770,7.8470,11.9240,-47.8470,32.9500
1.8975,0.1980,-0.0180,1.2850,12.6410,15.0080,-47.7250,33.0900
1.9042,0.1690,0.0050,1.1950,12.5340,18.8550,-45.1450,33.0500
1.9167,0.2080,0.0730,1.1530,6.8550,23.7400,-41.0380,33.0000
1.9238,0.1250,0.0610,1.1340,9.6030,17.6340,-38.2900,32.9500
1.9359,0.1630,0.1040,1.1210,5.6790,22.1070,-36.1830,33.0000
1.9480,0.1580,0.0890,1.1400,5.4500,19.2820,-37.3890,33.0900
1.9554,0.1870,0.0710,1.1440,7.1910,15.5570,-40.1830,33.0500
1.9675,0.2080,0.0590,1.1530,7.3440,11.6640,-44.7020,33.0000
1.9747,0.2180,0.0420,1.1790,7.6790,10.2140,-48.7480,33.0500
1.9869,0.2180,0.0290,1.1900,8.6110,12.8090,-50.9770,33.0000
1.9941,0.1760,0.0420,1.1490,7.7400,11.8780,-50.5800,33.0500
2.0063,0.1690,0.0530,1.1250,4.1070,12.8700,-47.4350,33.0000
2.0185,0.1960,0.0480,1.1500,2.2750,13.5420,-44.6260,33.0000
2.0257,0.2080,0.0490,1.1890,3.4200,16.6110,-43.5270,33.0500
2.0379,0.2250,0.0180,1.2050,6.0920,19.4660,-42.9160,33.0000
2.0451,0.2390,0.0040,1.1760,7.5880,21.9240,-43.2980,33.0500
2.0570,0.2140,0.0140,1.1740,8.5340,21.4810,-43.7400,33.0500
2.0642,0.2130,0.0440,1.1440,9.0840,20.1530,-44.6870,33.0000
2.0767,0.2050,0.0640,1.1220,8.1070,19.2670,-45.4350,33.0900
2.0838,0.1750,0.0460,1.1730,8.1980,9.5880,-47.3890,33.0000
2.0959,0.2190,0.0430,1.1840,9.2670,11.0230,-48.0610,33.0500
2.1083,0.2030,0.0600,1.1860,10.4890,15.2670,-48.9770,33.0000
2.1152,0.2000,0.0670,1.1300,7.6790,15.4810,-48.5340,33.1400
2.1276,0.2150,0.0710,1.1370,4.3970,18.2600,-48.1680,33.0500
2.1347,0.2010,0.0840,1.1690,5.1910,20.0310,-48.0760,33.0900
2.1469,0.1850,0.0850,1.1630,5.2520,22.5190,-46.9160,33.1400
2.1540,0.1670,0.0950,1.1420,4.8550,25.1760,-44.3050,33.0000
2.1662,0.1760,0.1020,1.1330,4.5800,25.5880,-42.6410,33.0500
2.1785,0.1900,0.1200,1.1190,4.3510,27.9390,-42.2600,32.9500
2.1857,0.1550,0.1450,1.0920,0.7940,23.3740,-42.9010,33.0900
2.1977,0.1760,0.1380,1.0640,-0.4270,19.8320,-45.0080,33.0500
2.2050,0.1840,0.1230,1.1040,-1.5570,15.4050,-46.5500,33.0000
2.2170,0.2070,0.0820,1.1790,1.6640,10.4890,-49.2370,33.0500
2.2242,0.2140,0.0590,1.2090,7.9690,12.1830,-51.0380,33.0900
2.2363,0.1650,0.0540,1.1740,9.8630,16.8550,-49.5110,33.0900
2.2483,0.1630,0.0670,1.1410,8.4270,15.6950,-45.8470,33.0500
2.2553,0.2260,0.0910,1.1230,6.3970,18.9160,-44.0610,33.0000
2.2681,0.2410,0.1070,1.1300,5.4960,19.5880,-44.5340,33.1400
2.2751,0.2570,0.1150,1.1280,3.6030,21.4200,-45.9080,33.0000
2.2873,0.2470,0.1060,1.1470,3.2370,20.9470,-49.3130,33.0500
2.2946,0.1990,0.1070,1.1450,2.5800,16.6560,-51.1760,32.9500
2.3067,0.1620,0.1030,1.1710,3.8020,13.9690,-51.0380,33.0000
2.3140,0.1550,0.0870,1.1760,6.2290,13.7560,-49.3740,32.9500
2.3261,0.1620,0.0860,1.1700,7.3130,14.9160,-47.0380,33.0000
2.3384,0.1720,0.0820,1.1770,8.5650,18.7790,-44.4890,33.0500
2.3454,0.1790,0.0960,1.1640,9.5270,20.7480,-42.0460,33.0000
2.3575,0.1800,0.1120,1.1440,8.5340,22.1830,-40.5340,33.0000
2.3648,0.1920,0.1310,1.1200,6.0920,19.4050,-39.5420,33.1400
2.3771,0.2550,0.1370,1.1140,2.5650,18.6410,-40.3660,33.0000
2.3842,0.2800,0.1410,1.1450,1.1910,17.2820,-44.5040,33.0500
2.3965,0.2610,0.1060,1.2180,4.3050,15.0230,-48.3050,33.0900
2.4085,0.2320,0.0710,1.2320,10.2900,19.9540,-50.2750,33.0900
2.4157,0.1690,0.0790,1.1810,11.8630,20.3510,-49.4200,33.0900
2.4278,0.1690,0.0930,1.1450,10.7940,19.2370,-47.7560,33.0900
2.4349,0.1630,0.1040,1.1220,8.5950,20.7020,-45.0080,33.0500
2.4471,0.1650,0.1030,1.1280,6.4890,22.1980,-43.2370,33.0000
2.4541,0.1520,0.1110,1.1370,4.6870,22.8700,-41.9540,33.0500
2.4664,0.1300,0.1260,1.1420,4.3970,22.7480,-41.0380,33.1400
2.4724,0.1030,0.1380,1.1360,4.7330,18.5040,-40.3050,33.0000
2.4860,0.1220,0.1330,1.1330,6.0610,12.9770,-39.2820,33.0500
2.4980,0.1490,0.1250,1.1340,5.0530,12.7020,-39.3130,33.0000
2.5051,0.1650,0.1190,1.1370,4.9470,8.7180,-39.9080,33.0500
2.5176,0.1800,0.1210,1.1240,3.5270,11.1910,-39.6030,33.0500
2.5247,0.1890,0.1350,1.1120,1.6030,9.5420,-38.9010,33.0000
2.5369,0.2240,0.1320,1.1470,1.5730,10.8550,-38.5340,33.0500
2.5441,0.2420,0.1150,1.1960,4.7480,11.1150,-39.9080,33.0000
2.5564,0.2420,0.1240,1.1620,5.7250,14.7480,-40.8550,33.0500
2.5686,0.2220,0.1350,1.1530,5.5570,14.9620,-40.9310,33.1400
2.5757,0.2260,0.1290,1.1660,7.1760,10.8550,-40.1680,33.0900
2.5877,0.2520,0.1410,1.1500,7.2370,14.3820,-38.8240,33.0500
2.5949,0.2470,0.1690,1.1350,5.9390,16.7330,-38.2900,33.0000
2.6073,0.2230,0.1940,1.1120,4.1070,18.7180,-36.8240,33.1400
2.6145,0.2310,0.1940,1.0720,1.1150,18.5650,-34.8700,33.0000
2.6266,0.2880,0.1880,1.1020,-1.7250,17.9240,-35.5270,33.0900
2.6338,0.3170,0.1600,1.1310,-2.2140,19.5270,-39.9850,33.0500
2.6459,0.2830,0.1550,1.1430,-1.5570,18.5340,-45.2980,33.0900
2.6579,0.2540,0.1260,1.1460,-0.5500,14.5340,-49.2670,33.0500
2.6650,0.2470,0.1180,1.1580,-0.4270,13.0990,-50.5650,33.0900
2.6771,0.2590,0.1210,1.1620,-0.5650,12.2900,-50.4430,33.0500
2.6840,0.2490,0.1160,1.1900,0.1070,14.3660,-48.7790,33.0000
2.6964,0.2400,0.1080,1.1960,2.6110,17.6340,-46.5340,33.0000
2.7024,0.2290,0.1170,1.1620,2.1830,21.1760,-43.8780,33.1400
2.7159,0.2440,0.1150,1.1550,1.9850,20.8240,-42.6260,33.0000
2.7280,0.2350,0.1320,1.1500,3.0530,22.5650,-42.7180,33.0500
2.7352,0.2340,0.1430,1.1410,3.0990,21.1600,-44.1530,33.0000
2.7474,0.2400,0.1410,1.1670,3.7860,18.1980,-46.2750,33.0000
2.7544,0.2370,0.1350,1.1600,6.7790,16.2750,-49.5270,33.0900
2.7669,0.2080,0.1540,1.0960,3.8170,15.3890,-49.3890,33.0000
2.7738,0.2080,0.1640,1.1050,1.1600,15.1150,-48.0610,33.0500
2.7862,0.2320,0.1430,1.1070,-1.2520,15.6180,-46.2900,33.0000
2.7982,0.2470,0.1300,1.1510,-3.4500,17.8170,-45.6340,33.0500
2.8055,0.2400,0.1110,1.1630,-2.6410,18.7790,-45.7710,33.1400
2.8176,0.2400,0.1040,1.1560,-4.2140,19.2820,-46.5340,33.0000
2.8244,0.1990,0.1180,1.1610,-3.3440,18.7180,-46.5190,33.0500
2.8366,0.1840,0.1060,1.1660,-2.5800,16.3660,-44.6720,33.0000
2.8439,0.2030,0.1140,1.1610,-2.6260,19.6790,-41.9690,33.0500
2.8560,0.2180,0.1140,1.1550,-1.6490,18.3050,-41.2670,32.9500
2.8680,0.2290,0.1370,1.1410,-2.0460,21.4810,-40.8240,33.0000
2.8752,0.2270,0.1560,1.1500,-2.5500,21.7860,-40.6870,33.0500
2.8873,0.2310,0.1590,1.1610,-0.7940,21.2370,-40.4120,33.0000
2.8942,0.2730,0.1590,1.1770,1.1760,20.4430,-41.6030,32.9500
2.9065,0.2860,0.1490,1.1820,2.3510,19.1450,-43.9080,33.0900
2.9139,0.2730,0.1570,1.1660,3.1760,18.9310,-45.8780,33.0000
2.9259,0.2450,0.1560,1.1730,3.6340,12.9470,-47.3740,33.0500
2.9379,0.2700,0.1400,1.2070,6.7180,11.8470,-46.7480,33.0000
2.9452,0.2690,0.1260,1.2150,10.3970,12.8850,-46.4270,33.1400
2.9573,0.2660,0.1540,1.1500,8.9470,17.2210,-44.2900,33.0900
2.9646,0.2560,0.1800,1.1110,6.7940,19.7860,-41.1600,33.0500
2.9769,0.2630,0.2110,1.1010,4.7330,21.0990,-39.3740,32.9500
2.9840,0.2820,0.2370,1.0750,0.9470,20.7180,-39.3280,33.0000
2.9961,0.3120,0.2280,1.0750,-3.3590,18.9470,-41.6790,33.0500
3.0083,0.3250,0.2370,1.0970,-5.7100,19.0230,-43.9080,33.0900
3.0154,0.3150,0.2080,1.1470,-5.0230,15.4500,-46.0460,33.0500
3.0275,0.3160,0.1950,1.1480,-3.6030,15.6030,-48.2900,33.0900
3.0345,0.2870,0.1880,1.1280,-4.4730,16.1680,-49.2210,33.0500
3.0466,0.3130,0.1750,1.1700,-4.7480,12.2750,-50.8850,32.9500
3.0538,0.3140,0.1310,1.2390,1.1760,12.4890,-53.6340,33.0900
3.0659,0.2960,0.1090,1.2440,7.1760,14.7480,-53.8320,33.0500
3.0784,0.2780,0.1160,1.1940,8.2750,21.8320,-51.7710,33.0900
3.0855,0.2370,0.1550,1.1510,8.4120,24.1530,-48.6260,33.0500
3.0976,0.2490,0.1610,1.1020,6.9770,27.0530,-47.3280,33.0000
3.1049,0.2190,0.1740,1.0950,5.0690,27.1600,-47.8470,33.0900
3.1168,0.2010,0.1810,1.1040,3.4810,24.5800,-48.7940,33.0500
3.1240,0.1890,0.1660,1.1140,2.3510,24.9010,-50.2750,33.0000
3.1363,0.1520,0.1670,1.1030,1.1450,25.4960,-49.7560,33.1400
3.1485,0.1300,0.1830,1.0890,-1.4350,23.4200,-48.1830,33.0900
3.1558,0.1090,0.1710,1.1200,-2.7330,16.1370,-46.5650,33.0500
3.1678,0.1500,0.1410,1.1760,0.7180,11.7710,-46.2290,33.0900
3.1749,0.1700,0.1410,1.1530,2.2290,14.9160,-45.3590,33.0900
3.1871,0.1830,0.1260,1.1460,2.4580,17.9850,-43.8780,33.0500
3.1944,0.2060,0.1040,1.1490,3.9690,24.6560,-40.9620,33.0000
3.2062,0.1960,0.1350,1.1760,3.3440,17.4350,-40.2600,33.0500
3.2119,0.2090,0.1410,1.1760,7.1150,22.4890,-39.2210,33.1900
3.2258,0.2050,0.1710,1.1410,6.2750,23.2210,-37.8470,33.0900
3.2379,0.2170,0.1950,1.1160,5.2060,21.2520,-36.6870,33.0900
3.2451,0.2580,0.1970,1.1130,4.2750,19.6340,-36.9310,33.0000
3.2572,0.2900,0.1970,1.1070,3.2820,18.7630,-40.3820,33.0500
3.2642,0.2850,0.1840,1.1320,2.7630,15.7860,-44.9920,33.0900
3.2768,0.2730,0.1600,1.1330,2.9920,12.2900,-48.2900,33.0500
3.2840,0.2890,0.1220,1.2050,7.2980,10.7330,-50.8850,33.0500
3.2962,0.2570,0.1150,1.1720,8.2290,16.0000,-49.9690,33.0900
3.3083,0.2540,0.1240,1.1750,7.4050,19.8780,-47.1450,33.0500
3.3155,0.2250,0.1360,1.1750,8.1530,24.1370,-43.3740,33.0900
3.3278,0.2340,0.1610,1.1420,6.4580,27.0380,-39.7710,33.1400
3.3350,0.2520,0.1840,1.1450,3.9540,27.0530,-38.8400,33.0500
3.3471,0.2750,0.1850,1.1260,3.3280,26.4730,-41.0530,33.0900
3.3542,0.2820,0.1820,1.1240,2.5190,23.6640,-44.0460,33.0500
3.3663,0.2750,0.1860,1.1070,2.0150,23.9850,-46.6560,33.0000
3.3723,0.2310,0.1870,1.0810,1.6030,25.0690,-46.8550,33.0500
3.3859,0.2140,0.1820,1.0640,0.8850,25.2210,-45.6180,33.1900
3.3980,0.2120,0.1790,1.0500,-1.2670,25.1910,-44.1980,33.0900
3.4054,0.2190,0.1720,1.1120,-0.7940,23.9690,-42.9470,33.1400
3.4174,0.2180,0.1580,1.1510,3.6030,24.5500,-42.7330,33.0900
3.4245,0.2130,0.1410,1.1730,8.7480,23.1760,-42.3660,33.0500
3.4366,0.2260,0.1340,1.1780,15.0990,22.1680,-43.0080,33.0000
3.4439,0.2320,0.1510,1.0530,15.2210,24.8700,-42.1830,33.0000
3.4558,0.2520,0.1760,1.0060,10.1980,21.8320,-41.4500,33.0500
3.4680,0.3010,0.1980,1.0060,6.3210,22.1980,-42.4120,33.0900
3.4752,0.2790,0.2100,1.0330,5.1150,24.9470,-43.8780,33.0500
3.4873,0.2470,0.2260,1.0070,3.1150,27.7860,-44.5040,33.0900
3.4945,0.2270,0.2240,0.9840,-0.8090,28.3510,-43.2210,33.0500
3.5066,0.2310,0.2140,1.0050,-4.0760,24.1980,-42.6260,33.0900
3.5139,0.2570,0.2000,1.0690,-4.5650,22.1830,-43.8780,33.1900
3.5260,0.2580,0.1740,1.1140,-0.5800,19.1600,-47.0690,33.1400
3.5380,0.2250,0.1700,1.0600,2.0760,23.3740,-48.6720,33.0900
3.5452,0.1760,0.1720,1.0320,2.2140,23.2520,-48.1680,33.0500
3.5573,0.1720,0.1590,1.0680,5.4500,19.9390,-46.4270,33.0500
3.5646,0.1810,0.1780,1.0280,6.3360,21.8020,-44.0920,33.0000
3.5767,0.1830,0.1970,0.9870,3.4050,21.4960,-41.9080,33.0500
3.5838,0.1830,0.2250,0.9640,-0.2750,22.0000,-39.9080,33.1900
3.5960,0.2020,0.2310,0.9600,-4.1830,20.5190,-38.9920,33.1400
3.6080,0.2340,0.2270,0.9650,-7.6790,16.3660,-40.0310,32.9500
3.6150,0.2450,0.2040,0.9890,-10.5190,15.7560,-42.1680,33.0900
3.6273,0.2310,0.1800,1.0590,-8.5800,12.0920,-44.4270,32.9500
3.6339,0.2450,0.1670,1.0570,-6.4270,14.1220,-44.7630,33.0900
3.6463,0.2250,0.1700,1.0370,-6.3210,16.2440,-43.6640,33.0500
3.6586,0.1950,0.1790,1.0000,-7.4810,19.0380,-40.8850,33.0900
3.6656,0.2040,0.1830,1.0150,-8.7330,18.1830,-37.5270,33.0900
3.6778,0.2440,0.1840,0.9830,-10.0920,18.9770,-36.3050,33.0500
3.6844,0.2570,0.1850,0.9790,-12.3820,20.2290,-36.1530,33.0900
3.6969,0.2610,0.1730,0.9830,-13.8630,18.5500,-37.1910,33.0500
3.7038,0.2780,0.1620,1.0220,-13.0230,18.9620,-38.7790,33.0000
3.7159,0.2550,0.1720,1.0050,-12.7790,20.1680,-39.4660,33.0000
3.7280,0.2400,0.1850,0.9890,-14.9770,22.0310,-39.2370,33.1400
3.7350,0.2210,0.1820,0.9970,-15.3590,22.7180,-38.3970,33.0900
3.7472,0.2110,0.1770,0.9780,-15.6180,19.2670,-37.7400,33.0500
3.7540,0.2170,0.1720,0.9600,-17.0080,17.5570,-37.8470,33.0900
3.7662,0.2450,0.1510,0.9480,-20.3660,18.0460,-39.3130,33.0900
3.7780,0.2620,0.1280,0.9810,-20.6260,15.9540,-43.5420,33.0000
3.7853,0.2130,0.1300,1.0010,-21.3590,14.7020,-46.4270,33.0000
3.7971,0.1570,0.1350,0.9950,-21.9540,13.4660,-46.5190,33.0500
3.8042,0.1200,0.1290,1.0160,-22.4430,8.7480,-45.2520,33.0000
3.8163,0.1080,0.1150,1.0330,-21.1910,5.4050,-42.8400,33.0900
3.8285,0.1150,0.0940,1.0380,-20.3050,5.7860,-38.5500,33.0500
3.8354,0.1540,0.0650,1.1070,-16.8090,5.6950,-34.8550,33.0900
3.8476,0.2400,0.0660,1.0650,-13.9390,14.7330,-32.2140,33.0500
3.8547,0.2090,0.0940,1.0530,-14.4890,19.3130,-30.6410,33.0900
3.8666,0.2030,0.1310,1.0220,-15.4200,17.6030,-28.2140,33.0500
3.8736,0.2180,0.1460,0.9990,-17.2370,17.5570,-27.0080,33.1400
3.8854,0.2280,0.1740,0.9740,-19.3590,14.7790,-28.4580,33.0900
3.8978,0.2520,0.1760,0.9020,-24.2600,15.9390,-31.2520,33.0500
3.9047,0.2650,0.1750,0.8810,-28.3820,10.9770,-36.3050,33.0900
3.9168,0.3000,0.1290,0.9620,-32.7330,3.6640,-43.5730,33.0500
3.9240,0.3280,0.0710,1.0960,-27.3440,-4.3510,-50.5800,33.0500
3.9359,0.3260,0.0440,1.1270,-22.6110,-2.1070,-54.6260,33.0000
3.9480,0.3180,0.0420,1.1180,-20.8850,-2.2140,-54.6870,33.0500
3.9549,0.2900,0.0580,1.0930,-22.0920,4.4730,-50.8700,33.0900
3.9671,0.2730,0.0670,1.0950,-21.0690,10.8400,-43.2060,33.1400
3.9742,0.3030,0.0640,1.0700,-21.5730,21.3440,-36.1830,33.0900
3.9862,0.3120,0.0710,1.0820,-22.6560,29.0990,-30.7940,33.0900
3.9983,0.3210,0.0670,1.0930,-23.2980,38.4890,-27.6030,33.0500
