Time,AX,AY,AZ,GX,GY,GZ,T
0.0000,0.1870,0.0800,1.0720,-10.4270,26.5500,-41.9850,32.8100
0.0004,0.1840,0.0660,1.0810,-11.2670,26.0760,-42.0760,32.7700
0.0008,0.2020,0.0590,1.0900,-12.5800,25.5270,-42.1530,32.7200
0.0012,0.2310,0.0500,1.1460,-13.2370,22.2290,-42.6410,32.8600
0.0017,0.2690,0.0500,1.1530,-13.0990,24.8850,-43.3130,32.8100
0.0021,0.2490,0.0590,1.1470,-14.2440,26.3660,-43.2370,32.8100
0.0025,0.2380,0.0560,1.1670,-14.2140,26.6560,-42.8700,32.7700
0.0029,0.2400,0.0400,1.1800,-11.6340,29.2670,-43.0380,32.7200
0.0034,0.1980,0.0460,1.1520,-9.8320,27.2370,-43.4500,32.7700
0.0038,0.1900,0.0760,1.1010,-11.6030,32.1220,-42.3660,32.7200
0.0043,0.2230,0.0810,1.0710,-18.3660,25.0530,-43.7860,32.7700
0.0047,0.2420,0.0560,1.1280,-22.9010,21.4350,-45.2980,32.7200
0.0051,0.2380,0.0240,1.1290,-25.7710,16.0920,-48.0920,32.8100
0.0055,0.2190,-0.0010,1.1670,-24.3970,15.8170,-48.7180,32.6700
0.0059,0.2140,-0.0350,1.1980,-18.4270,18.9770,-48.0150,32.7200
0.0064,0.2030,-0.0280,1.2010,-13.6030,25.5880,-45.8780,32.6700
0.0071,0.1860,0.0020,1.1490,-12.5800,30.2140,-42.9160,32.8100
0.0075,0.1800,0.0190,1.1180,-13.9540,26.6110,-39.8320,32.7700
0.0079,0.1920,0.0100,1.1340,-13.9690,26.8090,-37.3590,32.8600
0.0083,0.2070,0.0080,1.1340,-14.0920,27.2370,-35.2060,32.8100
0.0086,0.2420,0.0140,1.0900,-16.1980,28.0920,-35.3890,32.7700
0.0090,0.2520,-0.0160,1.1340,-14.6110,26.1980,-37.6640,32.8100
0.0093,0.2860,-0.0210,1.1630,-9.8470,27.1450,-40.9010,32.7700
0.0097,0.2510,-0.0100,1.1900,-8.0150,24.3660,-44.7020,32.7200
0.0101,0.2260,-0.0230,1.1290,-0.6410,20.1070,-47.3130,32.7700
0.0104,0.1600,-0.0130,1.0960,-5.5110,27.9850,-44.9470,32.7700
0.0108,0.1640,0.0090,1.0870,-8.9310,19.8170,-42.7790,32.7200
0.0114,0.2010,-0.0030,1.1000,-12.2900,21.9690,-41.5420,32.6700
0.0117,0.2120,-0.0140,1.1420,-12.9160,19.1600,-41.2980,32.8100
0.0120,0.2260,-0.0080,1.1330,-15.7250,21.5270,-40.2750,32.8600
0.0124,0.2380,-0.0110,1.2270,-13.7560,22.9620,-41.3590,32.6200
0.0127,0.2300,-0.0410,1.2200,-7.0840,25.0380,-42.7790,32.7200
0.0130,0.1610,-0.0070,1.1880,-6.0460,23.4050,-42.2290,32.7700
0.0133,0.2490,-0.0240,1.1000,0.0920,18.7790,-42.8400,32.7200
0.0138,0.1760,-0.0190,1.0790,-8.1530,29.1450,-41.4960,32.7700
0.0142,0.1630,-0.0120,1.1340,-10.4270,15.2210,-41.7710,32.8100
0.0146,0.1800,-0.0150,1.1330,-10.3660,21.2520,-40.1220,32.7700
0.0152,0.1510,0.0120,1.1140,-11.4200,22.1830,-37.9850,32.7200
0.0158,0.1590,0.0240,1.0860,-13.0530,26.2600,-36.1680,32.7200
0.0163,0.1160,0.0180,1.0830,-14.7330,27.8020,-33.2670,32.6700
0.0166,0.1410,0.0210,1.0430,-17.3130,29.1300,-30.1830,32.7200
0.0170,0.1430,0.0030,1.0850,-19.1910,25.0840,-29.2670,32.7700
0.0174,0.2090,0.0010,1.1010,-19.7250,24.9310,-30.2290,32.7700
0.0177,0.2270,0.0140,1.0890,-22.4430,30.5500,-32.3510,32.8100
0.0181,0.1790,0.0020,1.1130,-23.5880,25.9080,-35.0530,32.7700
0.0184,0.1880,0.0000,1.1230,-25.7710,24.1530,-37.4810,32.8100
0.0187,0.1840,-0.0140,1.1170,-25.5110,21.4050,-40.5040,32.7700
0.0190,0.1510,0.0110,1.1710,-28.9010,14.4730,-41.0990,32.7200
0.0193,0.2530,-0.0660,1.0870,-22.5340,11.2670,-42.0610,32.8100
0.0197,0.1540,-0.0950,1.1430,-26.8090,18.5800,-37.9080,32.7700
0.0200,0.1980,-0.1030,1.2110,-25.6490,8.6110,-37.0530,32.7200
0.0203,0.2250,-0.1170,1.2170,-23.1760,18.2290,-34.4580,32.7700
0.0206,0.1900,-0.0850,1.2400,-22.6720,14.7330,-32.3660,32.7200
0.0210,0.3400,-0.1050,1.1680,-16.8700,25.1910,-34.1370,32.7700
0.0213,0.2200,-0.1040,1.1900,-19.1910,28.9010,-35.2370,32.7200
0.0216,0.2340,-0.1080,1.1650,-20.1530,23.0840,-36.3210,32.7200
0.0219,0.2460,-0.1170,1.1840,-21.0990,26.5040,-38.0460,32.6700
0.0222,0.2270,-0.1220,1.1890,-20.5340,22.2600,-41.5730,32.7200
0.0225,0.2240,-0.1250,1.2060,-22.3660,21.8320,-43.4500,32.7700
0.0228,0.2180,-0.1120,1.2150,-22.9620,23.3890,-44.2440,32.7200
0.0231,0.1890,-0.1300,1.2320,-21.4500,24.6870,-43.7860,32.7700
0.0235,0.1660,-0.1370,1.2370,-17.6180,22.5650,-41.1600,32.7700
0.0238,0.1490,-0.1480,1.2250,-16.0760,26.2140,-35.2820,32.8100
0.0241,0.1590,-0.1730,1.2600,-13.6950,25.7560,-30.5190,32.7700
0.0243,0.3440,-0.1760,1.2610,-0.1070,43.3740,-26.7480,32.7200
0.0246,0.1920,-0.2420,1.1820,-0.2750,25.1300,-27.8470,32.6700
0.0249,0.3340,-0.1110,1.0260,-14.3970,44.0150,-26.7790,32.8100
0.0252,0.2810,-0.1110,1.1710,-17.3280,26.4890,-32.9160,32.7200
0.0255,0.3720,-0.1260,1.1770,-15.1150,30.6260,-40.2600,32.6700
0.0257,0.3140,-0.1220,1.1970,-15.3890,29.4500,-46.8240,32.7200
0.0260,0.2550,-0.1230,1.1440,-18.8850,31.4350,-49.4660,32.7700
0.0263,0.2190,-0.1670,1.2080,-19.9690,29.2520,-48.1370,32.7200
0.0266,0.2120,-0.1880,1.2940,-15.8320,37.2980,-44.3050,32.8600
0.0268,0.1570,-0.2110,1.3610,-12.4270,21.0690,-40.6720,32.6700
0.0271,0.1600,-0.2990,1.3270,-9.2520,0.0150,-43.9850,32.8100
0.0274,0.2970,-0.2010,1.1460,-3.4810,52.8700,-39.8020,32.7700
0.0276,0.2170,-0.1530,1.2320,-9.5570,33.4660,-44.4580,32.7200
0.0279,0.2640,-0.1570,1.2160,-14.3210,31.5880,-48.7180,32.7700
0.0281,0.2010,-0.1480,1.2230,-12.5950,32.2900,-50.9160,32.7200
0.0284,0.1790,-0.1360,1.1510,-14.5040,24.1370,-51.8320,32.8100
0.0286,0.1700,-0.1140,1.1610,-24.0760,26.9770,-51.3440,32.7700
0.0289,0.1640,-0.1590,1.2260,-23.0690,27.6490,-49.8170,32.8100
0.0292,0.1750,-0.1840,1.2720,-19.0230,37.2980,-47.8930,32.6700
0.0294,0.1570,-0.2030,1.2490,-13.8020,37.6340,-46.5950,32.7200
0.0297,0.1330,-0.2050,1.2490,-10.5950,40.9310,-44.8700,32.6700
0.0299,0.1320,-0.1940,1.2760,-4.7630,38.7480,-44.5650,32.7200
0.0302,0.1360,-0.1660,1.2330,-1.0990,41.6340,-44.4430,32.7200
0.0304,0.1130,-0.1570,1.1590,-3.4350,35.9850,-44.1070,32.7700
0.0307,0.1060,-0.1410,1.2070,-7.6950,28.9620,-45.6640,32.8100
0.0310,0.1140,-0.1510,1.2060,-6.9310,22.6560,-46.7330,32.6700
0.0312,0.1160,-0.1550,1.1950,-9.4050,21.8780,-47.2820,32.7200
0.0315,0.1380,-0.1480,1.2060,-12.5040,19.0690,-47.5110,32.8100
0.0317,0.1690,-0.1510,1.2060,-12.7630,26.8700,-46.4890,32.7200
0.0320,0.1350,-0.1760,1.2160,-13.9240,21.9080,-45.8320,32.7200
0.0322,0.1590,-0.1620,1.2300,-13.3740,28.1220,-45.2210,32.7700
0.0325,0.1270,-0.1710,1.2320,-11.0230,25.8470,-44.8700,32.7200
0.0327,0.1240,-0.1780,1.2310,-9.0380,24.1220,-44.2600,32.7700
0.0330,0.1230,-0.2070,1.2680,-4.2600,19.2060,-45.1910,32.7200
0.0332,0.1410,-0.2040,1.2390,-0.6870,19.2980,-45.3440,32.7200
0.0335,0.1610,-0.2060,1.2220,-0.0310,22.5500,-44.6110,32.7200
0.0337,0.1650,-0.1910,1.2070,-1.2820,22.7630,-45.4660,32.9100
0.0339,0.1530,-0.1610,1.1690,-4.0460,24.7180,-45.8320,32.7700
0.0341,0.1510,-0.1250,1.1500,-7.9690,25.1760,-44.9010,32.7200
0.0344,0.1200,-0.1200,1.1590,-13.6950,23.5110,-44.1980,32.7700
0.0346,0.1220,-0.1240,1.1810,-14.8700,20.8240,-43.9850,32.7700
0.0348,0.1180,-0.1490,1.2110,-14.1070,22.3970,-43.3590,32.7200
0.0351,0.1180,-0.1620,1.2100,-13.2370,20.7790,-42.2750,32.7700
0.0353,0.1550,-0.2050,1.2650,-6.0460,16.2440,-42.9770,32.7200
0.0355,0.1510,-0.1990,1.2420,-2.2600,19.6490,-42.2440,32.7700
0.0358,0.1610,-0.1850,1.2090,-1.5880,22.3660,-43.7250,32.7200
0.0360,0.1380,-0.1750,1.1820,-3.0690,19.4810,-45.0380,32.7200
0.0362,0.1330,-0.1560,1.1820,-6.4580,19.1450,-44.2600,32.7700
0.0364,0.1400,-0.1660,1.1820,-7.4660,17.9390,-43.3590,32.7200
0.0366,0.1360,-0.1630,1.2100,-10.9620,20.1220,-42.7790,32.6700
0.0369,0.1240,-0.1990,1.2040,-11.1300,19.8930,-42.4120,32.7200
0.0371,0.1220,-0.2030,1.2170,-11.8170,21.0530,-41.4050,32.7700
0.0373,0.1410,-0.2260,1.2150,-9.2370,22.0310,-41.3280,32.7700
0.0375,0.1340,-0.2460,1.2650,-5.1300,16.3820,-42.7480,32.8100
0.0378,0.1460,-0.2610,1.2830,2.1370,17.9390,-43.9080,32.7700
0.0380,0.1400,-0.2460,1.2570,6.3660,18.8400,-44.0760,32.7200
0.0382,0.1280,-0.2080,1.1920,6.7790,20.2750,-42.8700,32.6700
0.0384,0.1150,-0.1850,1.1490,4.5040,19.5570,-40.8700,32.7200
0.0386,0.1400,-0.1620,1.1150,0.8850,19.8170,-38.7630,32.7200
0.0389,0.1670,-0.1610,1.1310,-1.5880,19.9240,-38.9770,32.7700
0.0391,0.1810,-0.1760,1.1440,-3.1300,20.4890,-40.1680,32.7200
0.0393,0.1710,-0.1870,1.1680,-2.3210,23.1450,-41.5880,32.6700
0.0395,0.1500,-0.1830,1.1220,-2.2290,23.6180,-42.2290,32.7200
0.0397,0.1580,-0.1730,1.1020,-4.8090,23.3590,-42.1070,32.7700
0.0400,0.1590,-0.1910,1.1930,-0.7180,13.5730,-44.3510,32.7700
0.0402,0.1660,-0.2080,1.1770,5.9080,17.2980,-44.8700,32.7200
0.0404,0.1340,-0.1950,1.1100,5.2670,21.6640,-43.2670,32.7700
0.0406,0.1520,-0.1650,1.0610,1.1760,19.8170,-42.6110,32.7200
0.0408,0.1580,-0.1610,1.0800,-0.8240,20.9920,-42.5190,32.7700
0.0410,0.1480,-0.1630,1.0820,-1.2820,24.2440,-41.8470,32.8100
0.0412,0.1500,-0.1570,1.0560,-4.2600,23.2980,-41.7100,32.7200
0.0414,0.1490,-0.1630,1.0880,-6.7480,22.9470,-42.6260,32.8600
0.0416,0.1600,-0.1760,1.1130,-5.7250,20.8090,-44.1070,32.7200
0.0418,0.1780,-0.1860,1.1030,-5.0990,25.4960,-44.7940,32.7700
0.0420,0.1420,-0.1730,1.0900,-6.0310,22.6260,-46.0920,32.8100
0.0422,0.1470,-0.1670,1.0930,-7.3740,21.2820,-45.8930,32.7200
0.0424,0.1670,-0.1810,1.1320,-5.2980,22.7790,-46.0920,32.8100
0.0426,0.1560,-0.1820,1.1260,-3.9850,22.1680,-47.0080,32.8100
0.0428,0.1340,-0.1900,1.1090,-4.3660,21.9540,-46.4890,32.6700
0.0429,0.1640,-0.2020,1.0830,-2.1830,22.8850,-45.4810,32.8100
0.0431,0.1370,-0.1700,1.1000,-7.0990,23.2820,-43.9540,32.6700
0.0432,0.1450,-0.1560,1.1090,-11.7860,22.2290,-43.5570,32.7700
0.0434,0.1460,-0.1860,1.1350,-11.3890,21.5270,-44.4890,32.8100
0.0435,0.1410,-0.2040,1.1920,-8.5040,24.3510,-45.6640,32.8600
0.0436,0.1470,-0.2250,1.1760,-4.9310,23.3740,-47.1300,32.8100
0.0438,0.1120,-0.2090,1.1670,-6.1370,22.7940,-46.3970,32.8600
0.0439,0.1080,-0.2150,1.1730,-6.5040,20.6870,-44.2440,32.8100
0.0441,0.1290,-0.2160,1.1860,-5.0230,19.5880,-42.3510,32.7200
0.0442,0.1800,-0.2000,1.1760,-6.3210,21.8630,-42.1070,32.6700
0.0443,0.1720,-0.2060,1.1940,-4.8090,24.1070,-44.4120,32.8100
0.0444,0.1450,-0.2010,1.1700,-5.3890,22.3660,-45.0990,32.7700
0.0446,0.1130,-0.2170,1.1600,1.0840,20.4430,-43.6340,32.7700
0.0447,0.1230,-0.1980,1.1400,-1.1910,20.8400,-44.4430,32.7700
0.0449,0.1290,-0.1910,1.1410,-2.1220,19.8170,-45.2670,32.8100
0.0451,0.1230,-0.1880,1.1450,-2.3970,20.0460,-46.0610,32.7700
0.0453,0.1050,-0.1800,1.1300,-3.5420,21.0380,-46.0000,32.8100
0.0482,0.0810,-0.1670,1.1310,-6.1830,22.8090,-45.0080,32.7700
0.0604,0.0780,-0.1530,1.1400,-7.6340,23.4660,-43.9390,32.8100
0.0727,0.0790,-0.1570,1.1350,-8.3970,26.6560,-42.9470,32.7200
0.0793,0.0700,-0.1950,1.2260,-4.2290,24.8850,-43.1450,32.7700
0.0917,0.0730,-0.2200,1.2350,1.9240,19.8320,-43.5570,32.8100
0.0984,0.1010,-0.2190,1.1530,2.2750,19.1760,-42.9310,32.8600
0.1107,0.1200,-0.2060,1.1690,-0.1220,18.8700,-42.4580,32.7200
0.1229,0.1270,-0.1950,1.1440,-0.3510,20.1070,-42.0460,32.8100
0.1297,0.1380,-0.1820,1.1160,-3.0380,21.0990,-41.6180,32.7700
0.1420,0.1380,-0.1800,1.1280,-4.9920,22.5340,-42.1680,32.7200
0.1486,0.1260,-0.2070,1.2040,-1.7560,20.9620,-44.4580,32.8600
0.1610,0.0990,-0.2110,1.1760,0.8400,25.2670,-44.0760,32.7200
0.1732,0.0650,-0.1880,1.1590,0.1530,25.2370,-42.1370,32.6700
0.1803,0.0810,-0.1790,1.1520,-0.9920,22.5500,-40.7480,32.7700
0.1922,0.0970,-0.1690,1.1230,-3.4810,23.4050,-40.0760,32.7200
0.1992,0.1010,-0.1570,1.1260,-6.9620,19.6950,-41.0380,32.7700
0.2112,0.1490,-0.1810,1.0970,-8.3660,20.3970,-43.1300,32.8100
0.2183,0.1070,-0.1930,1.2100,-10.8700,14.4120,-44.9920,32.7700
0.2302,0.1200,-0.2140,1.2180,-8.6870,19.2370,-45.2980,32.7200
0.2426,0.1000,-0.2200,1.2010,-8.4730,20.4730,-43.8170,32.7200
0.2497,0.0980,-0.2180,1.2340,-8.7330,24.5950,-41.5880,32.7700
0.2617,0.1000,-0.2400,1.2150,-6.6410,22.6870,-40.7940,32.8100
0.2686,0.1000,-0.2330,1.2140,-5.6180,22.8240,-40.4120,32.7700
0.2809,0.1140,-0.2390,1.2440,-4.7790,18.6410,-41.0690,32.7200
0.2927,0.1300,-0.2470,1.2780,1.0230,20.0150,-41.6950,32.7200
0.2998,0.1190,-0.2290,1.2210,3.4200,22.8550,-41.8630,32.8100
0.3119,0.1060,-0.2060,1.1780,1.2060,24.3970,-40.9770,32.8100
0.3191,0.0960,-0.2040,1.1870,0.3820,25.6950,-39.0530,32.8600
0.3312,0.1030,-0.2030,1.1830,0.8550,27.2370,-37.6950,32.8100
0.3434,0.1230,-0.2000,1.1730,-0.1530,27.1150,-37.6790,32.7700
0.3503,0.1260,-0.1940,1.1920,0.5800,26.5340,-38.6560,32.6700
0.3625,0.1170,-0.2110,1.2080,3.6790,26.0760,-38.9770,32.8100
0.3694,0.1080,-0.2210,1.2080,7.0080,23.1760,-39.0840,32.8600
0.3816,0.1230,-0.2150,1.1740,7.4500,24.3360,-38.7480,32.8100
0.3886,0.1210,-0.2020,1.1670,7.6640,23.7860,-38.3970,32.7700
0.4008,0.1340,-0.2000,1.1620,6.6870,24.1070,-38.7020,32.8100
0.4129,0.1200,-0.1810,1.1430,5.3130,24.7480,-39.5730,32.8100
0.4201,0.1100,-0.1660,1.1250,2.2140,24.1980,-40.0760,32.7700
0.4323,0.1290,-0.1700,1.1460,0.5340,24.2600,-41.4810,32.8100
0.4393,0.1230,-0.1750,1.1550,-0.2140,24.8240,-43.1300,32.7700
0.4512,0.1050,-0.1750,1.1570,-1.0990,23.3740,-44.4120,32.7200
0.4634,0.0880,-0.1920,1.1500,-1.7860,22.1830,-45.0990,32.7700
0.4703,0.0960,-0.2010,1.1710,-2.1980,21.2980,-45.0080,32.7700
0.4825,0.0800,-0.1970,1.1720,-1.3740,23.7560,-44.5340,32.8100
0.4893,0.0880,-0.1960,1.1550,-1.9690,26.2140,-43.0990,32.7700
0.5014,0.0960,-0.2060,1.1920,-0.8240,25.3440,-43.0080,32.8100
0.5076,0.0620,-0.2110,1.2700,1.8020,23.6490,-43.1760,32.7700
0.5204,0.0970,-0.2090,1.1820,6.2750,26.8090,-44.3210,32.8100
0.5325,0.0680,-0.2040,1.1570,7.4350,24.9160,-44.3820,32.8100
0.5395,0.0460,-0.1840,1.1300,4.9160,21.6950,-43.8780,32.7700
0.5520,0.0580,-0.1730,1.1270,2.3210,20.0920,-42.2600,32.8100
0.5591,0.0910,-0.1660,1.1490,1.0840,21.1450,-41.6490,32.6700
0.5712,0.1030,-0.1590,1.1300,-0.8090,23.1910,-41.9540,32.7200
0.5830,0.1000,-0.1490,1.1290,-3.8780,24.2900,-42.8700,32.7700
0.5907,0.1060,-0.1680,1.1380,-5.8470,23.9390,-43.5110,32.8100
0.6019,0.0930,-0.1830,1.1860,-4.9470,24.1070,-44.5800,32.8100
0.6091,0.0690,-0.2210,1.2350,0.6560,20.8850,-45.2210,32.6700
0.6214,0.0640,-0.2540,1.2350,5.0990,14.4730,-45.2820,32.8100
0.6273,0.1110,-0.2150,1.2290,7.8470,21.5730,-45.4200,32.8600
0.6407,0.0620,-0.2150,1.2040,11.1600,12.1830,-44.5950,32.8100
0.6527,0.0610,-0.1680,1.1360,7.0990,17.0530,-43.0840,32.7700
0.6598,0.0580,-0.1620,1.1230,3.2210,13.9080,-41.3740,32.7700
0.6720,0.0840,-0.1530,1.1230,0.1830,15.4500,-40.5500,32.7200
0.6789,0.1170,-0.1610,1.1680,-3.9080,15.8470,-41.9240,32.8600
0.6911,0.1570,-0.1720,1.2140,-2.6410,16.2140,-44.6410,32.7200
0.7031,0.1390,-0.1830,1.2480,-1.0530,18.4890,-47.1910,32.7700
0.7100,0.0870,-0.2150,1.2290,5.8630,11.0230,-48.8850,32.8100
0.7222,0.0660,-0.2140,1.2410,5.8320,14.7020,-47.2520,32.8600
0.7294,0.0850,-0.2040,1.2060,7.7860,12.7330,-45.9540,32.7700
0.7415,0.0950,-0.2010,1.1920,6.6110,14.7330,-44.3510,32.8100
0.7472,0.1180,-0.1910,1.1720,5.2820,14.2750,-43.8320,32.7700
0.7603,0.1260,-0.1820,1.1760,3.8320,15.9080,-43.6790,32.7200
0.7726,0.1320,-0.1720,1.1660,2.7330,16.8550,-44.3360,32.7700
0.7799,0.1220,-0.1610,1.1660,3.4660,17.8470,-45.5110,32.7200
0.7920,0.0970,-0.1770,1.1590,2.6720,15.1600,-46.4270,32.8100
0.7992,0.0640,-0.1700,1.2010,2.0460,16.9010,-46.1980,32.6700
0.8112,0.0840,-0.1860,1.1400,6.2750,14.7330,-45.9850,32.8100
0.8234,0.0900,-0.1560,1.1570,4.5800,15.0840,-44.8850,32.7700
0.8303,0.0850,-0.1590,1.1450,4.3660,13.6490,-44.2750,32.8100
0.8424,0.0870,-0.1430,1.1580,1.2670,19.1300,-44.0150,32.7700
0.8496,0.0750,-0.1620,1.1970,7.6180,9.4960,-44.7630,32.8100
0.8617,0.1180,-0.1320,1.1040,4.1070,19.0690,-43.3740,32.7200
0.8688,0.0980,-0.1360,1.1150,0.5040,10.7180,-43.6030,32.7700
0.8810,0.1180,-0.1450,1.1360,-0.5500,12.0150,-43.9540,32.8100
0.8931,0.1100,-0.1440,1.1310,0.8700,10.9160,-44.1530,32.8600
0.9000,0.1150,-0.1490,1.1400,1.2670,11.8320,-43.9850,32.7200
0.9122,0.1150,-0.1670,1.1450,2.4270,15.5570,-43.2520,32.7700
0.9193,0.1140,-0.1550,1.1570,3.9240,16.3970,-42.7480,32.7200
0.9315,0.1200,-0.1490,1.1480,5.5730,17.7250,-43.4810,32.8100
0.9386,0.1110,-0.1400,1.1030,6.1220,17.7400,-43.4960,32.8600
0.9508,0.0970,-0.1640,1.1070,6.3660,14.3510,-43.9540,32.9100
0.9629,0.0730,-0.1360,1.1250,6.1370,14.4890,-43.1760,32.8600
0.9698,0.0650,-0.1430,1.0950,5.7250,12.2600,-41.5110,32.8100
0.9819,0.1080,-0.1390,1.0970,3.3130,11.1150,-40.2900,32.7200
0.9890,0.1520,-0.1440,1.1400,3.9690,11.8320,-41.0990,32.7200
1.0012,0.1750,-0.1370,1.1150,3.8780,13.7250,-42.4270,32.8100
1.0133,0.1800,-0.1290,1.1250,1.7400,15.8780,-43.6340,32.8600
1.0203,0.1750,-0.1290,1.1520,0.9310,17.8630,-44.3050,32.9100
1.0326,0.1340,-0.1610,1.2060,2.9160,15.6180,-44.4120,32.8600
1.0394,0.1890,-0.1450,1.1780,6.7790,24.8090,-44.8400,32.7200
1.0515,0.1730,-0.1430,1.1490,5.6950,23.4660,-45.8320,32.7200
1.0585,0.1360,-0.1450,1.1580,4.9010,18.0460,-46.5650,32.7200
1.0708,0.1500,-0.1560,1.1590,4.3970,18.6410,-47.8470,32.8100
1.0830,0.1470,-0.1480,1.1480,3.0690,15.0990,-49.2670,32.7700
1.0899,0.1430,-0.1580,1.1670,2.7630,17.9540,-49.1760,32.8100
1.1022,0.1140,-0.1620,1.1700,4.4730,21.0840,-47.8470,32.8100
1.1089,0.1080,-0.1600,1.1810,5.4810,22.9310,-45.9540,32.7700
1.1212,0.1110,-0.1390,1.1570,5.3440,24.1530,-44.3970,32.7200
1.1282,0.1040,-0.1220,1.1680,5.7100,25.7100,-43.1300,32.8600
1.1403,0.1110,-0.1160,1.1690,6.8090,23.7860,-43.1450,32.8100
1.1527,0.1260,-0.1060,1.1270,5.2820,24.3820,-42.8850,32.7700
1.1597,0.1420,-0.0910,1.1120,2.3970,22.9920,-44.1980,32.7700
1.1720,0.1490,-0.1020,1.1240,0.3660,20.3210,-46.3970,32.8100
1.1787,0.1650,-0.1190,1.1630,-0.3210,17.9850,-48.9920,32.8600
1.1910,0.1400,-0.1470,1.2350,2.3510,14.4120,-50.6720,32.8100
1.2034,0.1420,-0.1500,1.2150,5.3740,20.8400,-48.9470,32.7700
1.2103,0.1000,-0.1330,1.2040,6.2290,25.6030,-46.5340,32.8100
1.2225,0.0500,-0.1220,1.1830,6.8700,30.1530,-41.5110,32.9100
1.2295,0.0460,-0.1140,1.1710,7.0690,28.9010,-36.5340,32.8600
1.2417,0.1040,-0.1150,1.1710,5.7100,30.4430,-34.7330,32.8100
1.2486,0.1210,-0.1080,1.1640,5.1600,28.9470,-35.8020,32.7700
1.2608,0.1150,-0.0990,1.1630,3.2520,29.2060,-35.2670,32.8100
1.2730,0.1310,-0.1140,1.1810,3.8170,29.6790,-36.2290,32.7700
1.2801,0.1440,-0.0960,1.1440,3.2520,28.7940,-38.3660,32.8600
1.2924,0.1540,-0.0850,1.1540,1.1600,24.7480,-42.6110,32.8100
1.2995,0.1590,-0.0970,1.1600,0.5040,20.4120,-47.0530,32.7700
1.3113,0.1350,-0.0930,1.1640,-0.6870,19.0080,-48.5800,32.8100
1.3182,0.1450,-0.0960,1.1670,-2.1370,17.6180,-47.7100,32.7700
1.3304,0.1400,-0.0970,1.1890,-3.0080,20.5950,-45.6950,32.8100
1.3426,0.1240,-0.1090,1.1880,-1.9390,24.4580,-43.2210,32.8600
1.3497,0.1190,-0.1050,1.1880,-0.6870,26.3820,-41.7710,32.7700
1.3617,0.1190,-0.1030,1.1890,1.1600,22.2750,-42.8090,32.7200
1.3687,0.1260,-0.1190,1.1890,3.4660,19.2060,-45.2820,32.8600
1.3808,0.1420,-0.1200,1.1760,5.2210,17.0690,-47.4660,32.8100
1.3931,0.1390,-0.1240,1.1980,7.3130,16.2140,-49.9850,32.8600
1.4001,0.1140,-0.1340,1.1980,10.2600,16.7180,-51.8020,32.8100
1.4122,0.1220,-0.1000,1.1580,7.8780,26.1980,-49.8930,32.8100
1.4194,0.0420,-0.1150,1.1500,6.4580,19.8470,-46.6410,32.7700
1.4317,0.0420,-0.1020,1.1200,4.0460,22.2600,-43.9690,32.8100
1.4373,0.0730,-0.0950,1.1380,0.1530,19.4050,-41.5880,32.8600
1.4505,0.1020,-0.1040,1.1800,-0.4430,16.9010,-41.6950,32.7200
1.4626,0.1230,-0.1020,1.2240,2.6560,19.4200,-41.9850,32.8600
1.4698,0.1410,-0.0770,1.1740,3.2670,22.0920,-42.6560,32.7200
1.4820,0.2100,-0.1190,1.0800,1.8170,37.8320,-45.4500,32.7200
1.4888,0.0280,-0.0750,1.3150,-5.0840,14.9310,-44.9310,32.7700
1.5010,0.1820,-0.1090,1.2770,8.4730,10.6870,-47.9390,32.7200
1.5131,0.1420,-0.1310,1.2690,11.6030,18.4890,-49.5880,32.7700
1.5201,0.1560,-0.1090,1.1970,10.2290,14.0000,-50.6720,32.8100
1.5324,0.0890,-0.1190,1.2190,9.0990,16.5500,-47.6030,32.8100
1.5394,0.0880,-0.0920,1.1760,9.0380,13.6950,-43.4810,32.8100
1.5515,0.1170,-0.0990,1.1400,4.7480,17.0080,-40.8400,32.7200
1.5574,0.1290,-0.0640,1.1410,1.5110,16.8550,-40.6720,32.8600
1.5705,0.1540,-0.0650,1.1590,-0.7630,18.2900,-42.5950,32.8100
1.5827,0.1830,-0.0620,1.1550,-1.5880,18.7330,-45.7860,32.8600
1.5896,0.1630,-0.0620,1.1460,-3.2820,20.6410,-49.4810,32.7700
1.6015,0.1220,-0.0600,1.1350,-4.8850,18.8090,-52.3660,32.8100
1.6083,0.0920,-0.0730,1.1520,-6.1220,18.5340,-52.4120,32.7700
1.6206,0.0940,-0.0870,1.1440,-7.2820,20.7940,-50.0150,32.8100
1.6329,0.1130,-0.0860,1.1670,-8.7940,22.5340,-48.3360,32.7700
1.6398,0.1300,-0.1470,1.3420,0.5500,13.1910,-51.3130,32.7200
1.6519,0.1600,-0.1670,1.3010,11.8170,18.6260,-52.5500,32.8100
1.6588,0.0910,-0.1330,1.1880,12.1830,19.7100,-51.1600,32.6700
1.6710,0.0730,-0.0830,1.1150,8.1070,14.4270,-47.7400,32.8100
1.6832,0.1060,-0.0940,1.1330,5.7250,12.1980,-46.1530,32.8600
1.6905,0.1400,-0.1150,1.1780,6.6410,10.0460,-46.9920,32.8100
1.7024,0.1330,-0.1320,1.1850,5.0990,10.0460,-48.3050,32.7700
1.7093,0.1230,-0.1290,1.2090,3.8470,14.8550,-48.0150,32.7700
1.7214,0.1160,-0.1320,1.1710,7.4810,16.1980,-47.1150,32.8100
1.7287,0.0970,-0.1120,1.1830,5.9540,19.6180,-44.9310,32.7700
1.7408,0.1010,-0.1120,1.2210,7.0380,12.0920,-43.4350,32.7200
1.7529,0.1830,-0.1330,1.2450,9.7560,13.8630,-44.1830,32.7700
1.7600,0.1830,-0.1220,1.2310,12.7480,15.5730,-45.1150,32.7200
1.7719,0.1730,-0.0960,1.1850,12.3210,19.2370,-45.3590,32.9100
1.7791,0.1520,-0.0800,1.1960,12.6110,19.3130,-45.4810,32.6700
1.7909,0.1340,-0.0780,1.1960,15.4660,18.9160,-45.4350,32.8100
1.8031,0.1490,-0.0560,1.1280,15.1760,22.3970,-45.4810,32.8600
1.8100,0.1520,-0.0280,1.1340,9.0690,23.4810,-46.8400,32.8100
1.8220,0.1420,-0.0430,1.0960,11.2060,20.2900,-49.5570,32.7700
1.8290,0.1040,-0.0250,1.1290,10.1530,23.2370,-51.1600,32.7700
1.8413,0.0670,-0.0270,1.1210,9.9080,22.3660,-50.6870,32.7200
1.8534,0.0630,-0.0280,1.0930,8.1980,21.3590,-49.4500,32.7700
1.8606,0.0520,-0.0100,1.1230,4.1070,17.0690,-46.7630,32.8100
1.8726,0.0820,-0.0160,1.1060,3.0690,13.5270,-44.7790,32.8600
1.8798,0.0850,-0.0150,1.1150,1.8320,12.8550,-42.8850,32.8100
1.8919,0.1280,-0.0250,1.2060,3.3590,9.7100,-42.3970,32.9100
1.8992,0.1600,-0.0410,1.2380,10.6720,13.1450,-43.1760,32.8600
1.9110,0.1530,-0.0250,1.1520,11.8170,18.8090,-43.2980,32.7200
1.9230,0.1540,-0.0030,1.0740,5.8320,14.9620,-42.3970,32.7700
1.9303,0.1780,-0.0060,1.1180,2.4580,13.7100,-41.9240,32.8100
1.9425,0.2380,-0.0140,1.1330,0.6260,12.9310,-42.8090,32.8600
1.9494,0.2600,-0.0180,1.1500,-1.9390,15.9240,-45.9080,32.8100
1.9615,0.2390,-0.0250,1.1790,-2.9010,18.2140,-49.6950,32.7200
1.9672,0.1880,-0.0320,1.1980,-1.1150,14.5340,-51.5730,32.7700
1.9806,0.1820,-0.0530,1.2340,3.4350,12.9620,-52.4430,32.8100
1.9927,0.1560,-0.0760,1.2910,9.3440,14.7480,-51.8780,32.7700
1.9998,0.1270,-0.0650,1.2350,13.8020,19.5730,-49.2980,32.7200
2.0117,0.0860,-0.0280,1.1590,11.9390,21.8780,-44.9470,32.8100
2.0189,0.1110,0.0020,1.1120,7.6790,19.7560,-40.6110,32.8100
2.0309,0.1380,0.0130,1.1250,4.1530,19.1300,-38.5500,32.8100
2.0431,0.1660,0.0080,1.1310,2.6410,19.9390,-38.5190,32.7700
2.0503,0.1640,-0.0080,1.1270,0.6870,21.3440,-39.1150,32.8100
2.0625,0.1620,-0.0310,1.1360,-1.2520,22.5500,-41.4660,32.8100
2.0696,0.2120,-0.0040,1.2120,-0.9160,21.6640,-42.6870,32.7700
2.0815,0.1830,-0.0350,1.2190,4.7480,23.9540,-45.2820,32.8100
2.0886,0.1650,-0.0400,1.2120,6.8090,22.8700,-46.3970,32.8600
2.1007,0.1800,-0.0210,1.1880,7.3890,21.1150,-47.5730,32.8100
2.1129,0.1710,-0.0230,1.1880,8.7790,17.3740,-50.7180,32.8600
2.1200,0.1360,-0.0410,1.1860,10.0760,13.4500,-52.0760,32.7200
2.1320,0.1460,-0.0370,1.1450,7.6640,14.5340,-52.6410,32.9100
2.1391,0.1300,-0.0410,1.1630,6.1680,11.8930,-52.2290,32.8600
2.1513,0.1180,-0.0500,1.1500,4.7480,11.6950,-50.3510,32.8100
2.1633,0.1230,-0.0470,1.1940,4.4430,13.0690,-48.4730,32.7700
2.1705,0.1640,-0.0520,1.1920,5.2670,15.7250,-47.3740,32.7200
2.1827,0.1620,-0.0400,1.1960,6.2900,19.2520,-46.9160,32.8600
2.1894,0.1420,-0.0160,1.1800,7.1450,18.5040,-46.3210,32.7700
2.2017,0.1610,0.0010,1.1690,4.1830,19.0380,-45.6490,32.7200
2.2085,0.1880,-0.0340,1.2170,11.4960,11.1450,-47.3740,32.8600
2.2209,0.2050,-0.0050,1.2020,15.0080,18.0760,-48.3210,32.8100
2.2330,0.1960,0.0150,1.1340,14.1220,21.6180,-49.2520,32.7700
2.2397,0.1770,0.0270,1.1090,11.4050,20.1830,-49.2980,32.8100
2.2521,0.1780,0.0390,1.1130,9.9850,16.3970,-49.5420,32.8100
2.2593,0.2050,0.0520,1.1000,7.4050,18.5040,-49.7860,32.7700
2.2716,0.2040,0.0280,1.1400,5.9080,18.1370,-52.9770,32.7200
2.2789,0.1630,0.0220,1.1530,7.5880,19.3440,-54.1830,32.8600
2.2911,0.1300,0.0270,1.1370,6.8550,18.0150,-54.1680,32.9100
2.3031,0.1380,0.0170,1.1460,5.4660,15.4810,-53.6030,32.8600
2.3102,0.1320,0.0140,1.1770,5.3890,16.3360,-53.0840,32.7700
2.3226,0.1240,0.0120,1.1770,7.1150,16.1530,-52.1530,32.7200
2.3299,0.1130,0.0140,1.1670,5.5270,16.4430,-50.5950,32.8600
2.3419,0.1570,0.0010,1.2010,6.1980,15.4200,-49.9240,32.8100
2.3493,0.1880,-0.0020,1.2160,8.0150,17.5730,-50.2900,32.8600
2.3612,0.1680,0.0070,1.2030,8.4890,20.2900,-50.3360,32.8100
2.3735,0.1270,0.0280,1.1540,6.5500,21.0690,-48.4120,32.8100
2.3803,0.1130,0.0490,1.1470,3.8470,19.6340,-46.2600,32.6700
2.3928,0.1140,0.0660,1.1640,4.1830,18.1530,-44.9010,32.7200
2.4001,0.1230,0.0640,1.1900,4.9160,17.1910,-44.5340,32.8600
2.4122,0.1330,0.0480,1.2230,7.0990,14.7940,-43.9080,32.8100
2.4193,0.1870,0.0400,1.2470,10.9160,15.1910,-44.9010,32.7700
2.4314,0.2190,0.0520,1.2050,12.1830,19.6340,-46.4580,32.7200
2.4387,0.2050,0.0600,1.1630,10.3970,19.2820,-48.1680,32.8100
2.4507,0.1790,0.0730,1.1670,8.6560,17.2980,-48.3050,32.8600
2.4629,0.1650,0.0670,1.1670,6.9620,14.8850,-47.5880,32.8100
2.4700,0.1650,0.0650,1.1740,7.0080,17.0080,-46.3660,32.7700
2.4822,0.1600,0.0720,1.1930,7.4200,18.1830,-45.2060,32.7700
2.4892,0.1770,0.0650,1.1970,8.7330,19.9850,-45.7250,32.8100
2.5017,0.1540,0.0750,1.1700,9.0080,20.7790,-46.4430,32.8100
2.5088,0.1510,0.0980,1.1350,6.7630,18.6560,-45.8170,32.7200
2.5210,0.1540,0.1050,1.1290,4.4890,18.4890,-45.1300,32.8600
2.5331,0.1540,0.1040,1.1400,3.5570,17.9390,-44.3660,32.7200
2.5405,0.1480,0.0580,1.2090,7.4810,17.8320,-45.5730,32.8100
2.5526,0.1690,0.0670,1.2110,7.5270,19.5730,-47.9240,32.8600
2.5597,0.1330,0.0770,1.1690,5.5730,20.8550,-47.8320,32.8100
2.5719,0.1310,0.0790,1.1750,4.5650,15.8170,-48.5500,32.7700
2.5791,0.1240,0.0850,1.1580,4.8400,15.1760,-48.8850,32.7200
2.5914,0.1040,0.0840,1.1380,3.0840,13.5880,-48.1980,32.8600
2.5972,0.1160,0.0730,1.1600,0.5190,10.4890,-46.8240,32.8600
2.6106,0.1570,0.0610,1.2150,3.0840,10.7790,-46.1680,32.8100
2.6228,0.1480,0.0590,1.2120,4.5800,13.9080,-45.4810,32.7700
2.6300,0.1550,0.0580,1.1950,4.2290,16.0150,-43.5110,32.8100
2.6421,0.1730,0.0680,1.1830,3.6180,18.4430,-41.1600,32.8600
2.6494,0.1830,0.0810,1.1690,4.1680,17.5270,-41.9080,32.7200
2.6616,0.1760,0.0680,1.1900,4.3660,16.0000,-43.7560,32.8600
2.6688,0.2030,0.0620,1.2100,6.1370,12.3210,-46.5650,32.8600
2.6809,0.1880,0.0660,1.1860,7.7400,14.2140,-48.9470,32.9100
2.6931,0.1490,0.0660,1.1650,6.8400,11.9690,-48.5500,32.8600
2.7002,0.1340,0.0780,1.1360,5.2060,12.0310,-46.0920,32.8100
2.7126,0.1430,0.0860,1.1200,2.8240,12.5340,-42.8700,32.7700
2.7199,0.1600,0.0910,1.1330,1.1910,12.1830,-40.9620,32.8100
2.7319,0.1900,0.0780,1.2130,3.6180,12.7630,-40.2440,32.8100
2.7390,0.2080,0.0610,1.2430,10.1830,14.0610,-40.9310,32.8600
2.7512,0.2230,0.0750,1.1890,12.1980,15.5270,-41.0080,32.8100
2.7633,0.2370,0.0980,1.1330,10.9470,16.0920,-42.3210,32.7700
2.7706,0.2310,0.1130,1.1090,9.2520,15.3890,-44.3360,32.8100
2.7827,0.2130,0.1250,1.1110,6.2900,11.0080,-45.5110,32.8600
2.7898,0.2230,0.1280,1.1260,3.9080,9.3280,-45.7250,32.8600
2.8021,0.2430,0.1040,1.1530,2.6260,12.3360,-45.8320,32.8100
2.8093,0.2480,0.0980,1.1810,2.8090,16.6260,-45.1910,32.8600
2.8214,0.2320,0.0940,1.1740,2.9010,20.8700,-43.5420,32.9100
2.8284,0.2380,0.0650,1.2080,4.6110,18.7790,-43.5730,32.8600
2.8408,0.2730,0.0770,1.1770,5.8170,20.2440,-43.5270,32.8100
2.8531,0.2810,0.0990,1.1550,4.0000,18.5500,-45.0690,32.8100
2.8603,0.3060,0.1180,1.1560,3.0380,14.0000,-48.3660,32.7700
2.8724,0.3110,0.1160,1.1760,2.8400,13.3440,-50.6720,32.8100
2.8796,0.3000,0.1100,1.1860,3.6790,15.0530,-51.8170,32.8600
2.8917,0.2920,0.1350,1.1680,4.3970,19.0990,-49.5110,32.9100
2.8989,0.3010,0.1430,1.1480,4.8400,28.7330,-46.7480,32.7700
2.9112,0.2760,0.1480,1.1660,6.9470,27.4350,-44.9310,32.9100
2.9233,0.2940,0.1360,1.2000,9.9080,35.3890,-43.8780,32.7200
2.9305,0.2560,0.1400,1.1560,11.7100,38.7790,-46.0760,32.7700
2.9427,0.1960,0.1480,1.1070,8.6260,36.4730,-49.2370,32.8100
2.9498,0.1610,0.1220,1.1110,6.5500,28.9470,-52.4430,32.8600
2.9619,0.1540,0.1210,1.1150,4.3210,21.7250,-55.4810,32.8100
2.9691,0.1630,0.1010,1.1250,0.7940,15.8320,-58.2290,32.8600
2.9815,0.1510,0.0890,1.1730,-0.8240,15.0990,-60.0150,32.8100
2.9873,0.1030,0.0940,1.1830,-0.7480,14.7940,-58.6720,32.7200
3.0005,0.0690,0.0990,1.1670,-1.0530,16.1830,-53.8630,32.7700
3.0126,0.0870,0.1180,1.1390,-3.4200,18.2900,-49.0380,32.9100
3.0199,0.1190,0.1210,1.1710,-3.4350,14.5040,-45.7250,32.8600
3.0320,0.1640,0.1040,1.2220,1.2670,12.2750,-45.3590,32.8100
3.0391,0.2010,0.1090,1.2200,4.2600,14.0610,-45.5880,32.8600
3.0512,0.2050,0.1060,1.2270,8.5800,13.8470,-46.7790,32.7200
3.0573,0.2310,0.1190,1.2060,10.9920,15.9390,-46.9470,32.8100
3.0705,0.2340,0.1470,1.1420,10.0150,14.9010,-48.0310,32.7700
3.0826,0.2290,0.1780,1.0810,6.7790,15.7250,-48.7940,32.8100
3.0898,0.1910,0.1710,1.0730,3.8020,12.9770,-48.6110,32.9500
3.1022,0.2060,0.1520,1.1000,3.5270,10.1530,-49.2210,32.7200
3.1093,0.2040,0.1520,1.0880,3.0690,10.3820,-50.9010,32.8600
3.1214,0.2010,0.1490,1.0730,1.2520,8.5040,-52.5190,32.8100
3.1286,0.1830,0.1560,1.0690,-2.2140,8.6410,-52.2290,32.8100
3.1411,0.1850,0.1460,1.0930,-2.6260,6.7940,-51.8780,32.7700
3.1531,0.2040,0.1100,1.0960,-2.5650,8.9310,-50.4120,32.8100
3.1602,0.2110,0.0870,1.1150,-3.9080,8.4580,-49.1450,32.8600
3.1724,0.2480,0.0510,1.1760,-1.1450,6.3820,-49.6790,32.9100
3.1797,0.2720,0.0410,1.1710,2.6720,8.5190,-49.6950,32.7700
3.1919,0.2610,0.0630,1.1350,4.0000,11.9240,-47.7400,32.8100
3.1990,0.2840,0.0940,1.0940,3.6030,16.2140,-44.8850,32.7200
3.2111,0.3090,0.1080,1.0800,2.7630,20.9310,-43.0080,32.7700
3.2167,0.3350,0.1390,1.0670,1.9390,26.4430,-42.6870,32.9100
3.2306,0.3330,0.1510,1.0670,2.0460,32.4890,-44.5650,32.8600
3.2428,0.2810,0.1410,1.0690,3.1600,37.0080,-47.1300,32.8100
3.2501,0.2330,0.1520,1.0310,0.9770,37.0230,-49.6950,32.8100
3.2621,0.1970,0.1260,1.1010,3.5110,32.0150,-55.2980,32.8100
3.2692,0.1410,0.0880,1.0750,6.4430,26.4580,-61.9540,32.8100
3.2821,0.0570,0.0830,1.0340,2.9920,18.0920,-65.1150,32.7700
3.2889,-0.0180,0.0630,1.0670,2.2750,5.2060,-65.4200,32.8100
3.3010,0.0250,0.0500,1.1040,0.5340,4.6260,-62.1680,32.8600
3.3133,0.0110,0.0510,1.1370,1.9080,11.8630,-56.0000,32.8100
3.3205,0.0160,0.0410,1.1020,0.5650,15.9240,-48.3360,32.8100
3.3327,0.0530,0.0680,1.0830,-0.3510,19.0080,-42.1070,32.8100
3.3399,0.1040,0.0790,1.1010,-1.0230,19.8930,-38.0920,32.9100
3.3519,0.1410,0.0990,1.1270,-1.0840,19.2370,-36.8240,32.8600
3.3588,0.1660,0.1070,1.1280,1.0840,22.3660,-36.7020,32.8100
3.3711,0.1610,0.1150,1.1200,3.9390,22.4270,-36.6720,32.7700
3.3833,0.1780,0.1130,1.1090,6.7790,18.3360,-37.2670,32.9100
3.3905,0.1900,0.1140,1.0930,7.4660,20.7480,-37.1450,32.8100
3.4026,0.1950,0.1320,1.0730,7.4810,21.5570,-37.0080,32.8100
3.4097,0.1990,0.1650,1.0330,4.7790,20.8700,-36.5950,32.9100
3.4221,0.1990,0.1920,1.0510,3.3130,21.7100,-36.3050,32.8600
3.4294,0.1960,0.2120,1.0210,2.2140,22.1530,-35.1600,32.7200
3.4415,0.2150,0.2300,1.0160,0.1070,21.9540,-35.4050,32.8600
3.4487,0.2180,0.2190,0.9950,-1.9540,22.7330,-36.4730,32.7700
3.4607,0.2420,0.2160,0.9650,-5.6640,21.0230,-38.5950,32.7200
3.4729,0.2410,0.1780,1.0240,-7.0380,20.2140,-43.1760,32.7700
3.4801,0.2170,0.1370,1.0340,-7.6030,19.0530,-47.3890,32.8100
3.4922,0.1690,0.1290,1.0400,-10.2440,17.1600,-47.6490,32.7700
3.4992,0.1510,0.1220,1.0770,-10.7790,14.6720,-45.0690,32.8100
3.5113,0.1600,0.1120,1.1320,-7.9850,18.6720,-40.8550,32.8100
3.5234,0.1410,0.1150,1.1180,-6.4890,21.2060,-35.7710,32.8600
3.5303,0.1590,0.1270,1.1030,-6.2750,21.3590,-31.5420,32.8100
3.5424,0.2010,0.1410,1.0960,-3.8630,20.7020,-30.7330,32.8600
3.5496,0.2410,0.1430,1.0810,-3.8780,21.1300,-31.4810,32.9100
3.5617,0.2550,0.1430,1.0590,-5.1910,20.8850,-33.3740,32.7700
3.5689,0.2730,0.1570,1.0610,-8.3820,22.2140,-34.2290,32.8100
3.5809,0.2700,0.1690,1.0770,-9.7560,24.0460,-34.4730,32.8100
3.5931,0.2630,0.1670,1.1190,-9.1600,26.0920,-34.2140,32.7700
3.6001,0.2790,0.1690,1.1090,-8.0310,29.9080,-34.6560,32.8100
3.6122,0.2600,0.1680,1.0830,-9.7250,29.2370,-36.2900,32.8600
3.6193,0.2480,0.1720,1.0700,-11.9540,25.0380,-38.2750,32.8100
3.6315,0.2810,0.1560,1.0590,-15.2980,24.1370,-39.8780,32.7700
3.6433,0.2670,0.1280,1.1130,-15.7100,23.1300,-43.1450,32.7700
3.6505,0.2330,0.0980,1.1750,-11.7250,21.8470,-45.1910,32.9100
3.6625,0.1880,0.0820,1.1440,-8.5500,24.7940,-44.4580,32.8600
3.6696,0.1720,0.1040,1.1240,-10.0000,25.7400,-41.6340,32.8100
3.6818,0.1880,0.1120,1.1350,-9.9540,28.0920,-39.3280,32.8600
3.6887,0.1750,0.1090,1.1200,-9.1300,26.3820,-37.9690,32.8100
3.7007,0.2150,0.1080,1.1040,-11.5570,25.8930,-36.8850,32.7700
3.7129,0.2490,0.1070,1.1290,-13.3440,24.1980,-38.3970,32.8600
3.7199,0.2200,0.0900,1.1700,-10.0460,19.8630,-40.5950,32.7200
3.7321,0.1890,0.0940,1.1750,-7.8320,17.7400,-40.7480,32.7700
3.7391,0.2090,0.0800,1.1860,-6.0760,14.2290,-40.6560,32.8100
3.7512,0.2480,0.0880,1.1690,-6.3820,17.4810,-40.2290,32.8600
3.7634,0.2520,0.0720,1.2170,-3.8470,17.2670,-40.6720,32.7200
3.7703,0.2600,0.0760,1.1570,-3.4050,21.8470,-40.1370,32.7700
3.7825,0.2620,0.1050,1.1350,-7.9690,23.0380,-40.8400,32.8100
3.7895,0.2440,0.1110,1.1680,-10.1220,21.9240,-42.2440,32.8100
3.8017,0.2200,0.1040,1.1670,-10.2440,22.6410,-42.8550,32.8600
3.8086,0.2120,0.0910,1.2080,-10.2440,18.0920,-44.0150,32.8100
3.8206,0.2170,0.0750,1.2060,-9.3590,19.3590,-45.3280,32.7700
3.8327,0.2050,0.0670,1.1550,-8.2750,26.2600,-45.0990,32.7200
3.8394,0.1860,0.0640,1.2210,-5.0230,24.5190,-45.1600,32.8600
3.8516,0.1670,0.0600,1.2720,-1.0990,27.9690,-43.6950,32.7200
3.8586,0.1230,0.0640,1.2640,0.2600,19.6180,-41.8780,32.8100
3.8709,0.1480,0.1040,1.2120,-1.1600,12.7480,-39.3280,32.8600
3.8832,0.1650,0.1230,1.1990,0.0000,10.4270,-37.1600,32.8100
3.8900,0.2070,0.1330,1.1520,-1.7560,13.8320,-36.4430,32.8600
3.9024,0.2190,0.1330,1.1520,-3.7560,13.6640,-37.9850,32.8100
3.9094,0.2510,0.1280,1.1320,-5.0990,13.8020,-41.0990,32.7700
3.9216,0.2390,0.1140,1.1390,-8.1980,11.5730,-44.2290,32.8100
3.9287,0.2380,0.1000,1.1540,-10.5950,10.8240,-45.9390,32.8100
3.9407,0.2350,0.0810,1.2060,-9.4350,13.6180,-46.4580,32.7700
3.9530,0.2140,0.0830,1.2000,-6.9770,16.3050,-45.8470,32.8100
3.9600,0.2060,0.0710,1.2340,-3.6950,20.0460,-43.5270,32.7700
3.9723,0.2210,0.0670,1.2330,-0.0460,20.4890,-40.8850,32.9100
3.9794,0.2430,0.0860,1.1910,1.0080,23.4960,-39.2820,32.8600
3.9915,0.2510,0.0940,1.1490,-0.1830,23.8630,-39.9240,32.8100
3.9986,0.2390,0.0910,1.1270,-1.7250,20.6260,-41.5110,32.8100
