Time,AX,AY,AZ,GX,GY,GZ,T
0.0000,0.2660,0.1640,1.1650,-33.6180,12.0760,-43.2520,32.5800
0.0121,0.2070,0.1160,1.2230,-29.6490,15.1600,-38.7630,32.5300
0.0242,0.1940,0.0910,1.2000,-28.1370,21.6180,-31.8170,32.5800
0.0309,0.2610,0.0910,1.2290,-24.9920,25.6490,-29.9240,32.5300
0.0433,0.3230,0.1100,1.1560,-23.6790,15.3280,-32.5040,32.6700
0.0501,0.3040,0.0970,1.2270,-22.2140,15.6950,-34.8090,32.6200
0.0622,0.3560,0.1050,1.2490,-11.6950,8.6260,-38.3820,32.5300
0.0746,0.1610,0.0300,1.3170,-15.6490,15.4810,-36.5340,32.4800
0.0813,0.2660,0.0990,1.0870,-20.0460,24.3510,-32.4580,32.4400
0.0958,0.2210,0.0910,1.1520,-23.4960,8.9620,-29.6180,32.4800
0.1006,0.3250,0.0760,1.1570,-25.2670,12.9160,-28.2600,32.5300
0.1125,0.3720,0.0730,1.2200,-21.9390,12.1530,-30.3360,32.4800
0.1248,0.3730,0.0680,1.2120,-16.6110,17.8320,-32.9770,32.5300
0.1317,0.3110,-0.0130,1.2440,-11.9080,0.8400,-38.1980,32.4800
0.1438,0.3700,0.0930,1.0700,-17.2670,36.7790,-38.2290,32.5800
0.1508,0.2120,0.0550,1.2270,-14.0310,15.9240,-39.8170,32.5300
0.1629,0.2860,0.1060,1.1360,-6.2750,28.1680,-37.1600,32.5800
0.1751,0.1140,-0.0280,1.1330,-4.1980,25.0380,-33.5110,32.6200
0.1818,0.2070,0.0660,1.0670,-10.6560,17.8470,-25.0530,32.5800
0.1941,0.3750,0.1480,1.1830,0.5800,7.9690,-25.2670,32.5300
0.2012,0.3840,0.0480,1.1850,-6.6720,21.5420,-26.3210,32.5300
0.2135,0.4160,0.0160,1.0890,-0.3050,16.5650,-32.1070,32.4800
0.2211,0.3360,0.0460,1.1320,0.5800,31.4500,-31.9690,32.6200
0.2328,0.0860,0.1440,1.2460,-0.7180,11.3890,-24.7180,32.5800
0.2448,0.3410,0.0910,0.9970,-4.4890,39.7710,-21.6640,32.5300
0.2520,0.2640,0.0760,1.0730,-4.7630,11.4050,-22.6410,32.5800
0.2642,0.3750,0.1180,1.0280,-17.7400,26.1980,-19.8630,32.6200
0.2711,0.4330,0.1130,1.1040,-19.7560,18.7940,-24.4120,32.5300
0.2832,0.4690,0.0720,1.1980,-15.7250,14.1830,-31.9540,32.5800
0.2890,0.4500,0.0640,1.1740,-11.4350,25.2670,-36.2600,32.4400
0.3022,0.3670,0.0610,1.1150,-12.4430,35.2370,-36.2290,32.5800
0.3144,0.3270,0.0780,1.0630,-17.9540,45.1150,-33.2210,32.5300
0.3211,0.3180,0.0790,1.0680,-21.7560,44.7020,-31.0690,32.4800
0.3331,0.3210,0.0750,1.0890,-25.0080,37.3130,-32.3050,32.5300
0.3399,0.3350,0.0600,1.0980,-27.2820,35.2980,-33.0230,32.4800
0.3521,0.3330,0.0260,1.1410,-27.4500,38.8850,-34.0460,32.5800
0.3642,0.3180,0.0160,1.1470,-29.2370,43.7250,-34.3510,32.5300
0.3710,0.3070,0.0140,1.1540,-31.3440,41.8170,-36.3510,32.4800
0.3832,0.2970,-0.0010,1.2270,-29.8930,35.3590,-39.6490,32.5300
0.3899,0.2700,-0.0120,1.1930,-25.0690,35.8320,-41.0840,32.5800
0.4022,0.2450,0.0050,1.1650,-25.7710,32.4270,-39.4660,32.5300
0.4142,0.2450,0.0120,1.1680,-27.9390,33.7100,-38.3360,32.6700
0.4211,0.2370,-0.0180,1.2080,-26.2600,31.2520,-36.7940,32.6200
0.4332,0.2110,-0.0320,1.3230,-20.7630,13.1300,-36.8090,32.6200
0.4400,0.3870,-0.0310,1.1610,-20.9310,38.5800,-40.2290,32.5800
0.4519,0.1850,-0.0220,1.2510,-25.5880,3.9850,-41.1450,32.5300
0.4641,0.3050,-0.0200,1.0450,-39.2520,-1.4660,-42.9920,32.5800
0.4709,0.2780,-0.0450,1.1870,-34.8700,2.5190,-41.3130,32.5300
0.4832,0.3040,-0.0450,1.2820,-28.6720,22.7180,-39.7250,32.5800
0.4900,0.2490,-0.0600,1.2330,-32.9310,23.3280,-38.3970,32.6200
0.5021,0.2710,-0.0660,1.2090,-36.2290,22.1070,-37.2370,32.5800
0.5140,0.2970,-0.0670,1.2830,-28.9160,20.4580,-37.0230,32.5800
0.5208,0.3170,-0.0680,1.2840,-27.2370,21.4500,-38.1680,32.6200
0.5330,0.3200,-0.1000,1.3130,-21.9240,15.9540,-40.1680,32.6200
0.5451,0.2970,-0.1050,1.3030,-15.7560,27.2980,-41.6030,32.5300
0.5518,0.2400,-0.0660,1.2510,-15.0690,27.4500,-40.3360,32.5800
0.5636,0.2930,-0.0500,1.2130,-18.0310,30.2140,-39.2670,32.5300
0.5704,0.4300,-0.0690,1.1760,-16.4270,28.1220,-45.4810,32.4800
0.5827,0.4190,-0.0370,1.2670,-13.8020,27.2210,-54.5190,32.5800
0.5947,0.3710,-0.0870,1.2460,-13.9240,28.9620,-59.5110,32.6200
0.6016,0.2300,-0.0780,1.2510,-10.0760,28.0000,-57.6640,32.6200
0.6136,0.2020,-0.0700,1.1760,-17.9540,28.0310,-51.6180,32.6200
0.6203,0.2880,-0.0930,1.2580,-17.1300,26.7180,-50.2440,32.5800
0.6325,0.3010,-0.1160,1.2800,-11.3740,28.5650,-52.1370,32.6200
0.6447,0.2970,-0.0980,1.2210,-9.4810,25.2820,-54.0000,32.5800
0.6516,0.2880,-0.0630,1.2430,-11.6180,25.8630,-53.0080,32.6200
0.6637,0.2940,-0.0850,1.2150,-8.4270,28.7790,-50.7480,32.6200
0.6707,0.1620,-0.0220,1.2640,-12.3050,26.8700,-46.2900,32.6200
0.6825,0.3180,-0.0560,1.0980,-13.6640,27.3280,-43.5880,32.6200
0.6946,0.2540,-0.0550,1.2000,-15.5570,18.3210,-42.4730,32.5800
0.7017,0.2990,-0.0780,1.1390,-17.4500,21.0990,-43.0990,32.5300
0.7135,0.3020,-0.0870,1.1560,-21.8020,26.7020,-43.2820,32.6700
0.7204,0.3700,-0.2850,0.9790,-9.7560,36.2290,-43.6340,32.6200
0.7325,0.2530,-0.0960,1.1670,-20.2900,33.9540,-41.0840,32.5300
0.7444,0.2520,-0.1280,1.2230,-20.5650,28.8400,-41.5730,32.5300
0.7513,0.3080,-0.1700,1.2550,-14.1830,23.9850,-45.1910,32.5300
0.7633,0.2470,-0.1610,1.2490,-7.5270,23.0690,-48.4580,32.5800
0.7703,0.2550,-0.1490,1.2230,-5.5110,23.4050,-49.3740,32.5300
0.7823,0.2120,-0.1560,1.1950,-4.0760,24.2900,-47.4500,32.5800
0.7943,0.2150,-0.1170,1.1450,-7.8930,25.3890,-44.3050,32.6200
0.8011,0.2150,-0.1110,1.1700,-9.2670,23.8930,-41.9080,32.6200
0.8139,0.2250,-0.1060,1.1710,-9.8320,23.4200,-41.2670,32.6200
0.8202,0.2380,-0.1160,1.1750,-9.6950,19.9390,-41.9850,32.6200
0.8325,0.2740,-0.1210,1.1880,-10.0460,25.7860,-42.4580,32.5800
0.8444,0.2660,-0.1190,1.2290,-8.1530,26.3210,-42.9010,32.5300
0.8516,0.2620,-0.1100,1.2050,-7.0530,26.1370,-43.2210,32.5800
0.8634,0.2440,-0.1160,1.2170,-7.4050,24.1830,-43.0230,32.5300
0.8706,0.2630,-0.1230,1.2240,-7.1300,21.9390,-42.8700,32.6700
0.8824,0.2850,-0.1260,1.2140,-7.6640,25.4810,-43.0990,32.5300
0.8946,0.2630,-0.1450,1.2440,-7.1760,25.8780,-44.0610,32.6200
0.9016,0.2690,-0.1680,1.3090,-1.6640,28.4730,-44.3210,32.5800
0.9137,0.2240,-0.1660,1.2630,1.9080,34.0920,-42.0920,32.6200
0.9212,0.2280,-0.1390,1.2120,0.3210,35.0080,-39.4200,32.6700
0.9329,0.2500,-0.1180,1.2100,-1.2820,35.8470,-38.5340,32.6200
0.9448,0.2760,-0.1070,1.2270,-0.2440,32.9620,-41.0990,32.5800
0.9520,0.2850,-0.1070,1.1930,-0.6110,30.7630,-43.7400,32.6200
0.9639,0.2490,-0.1000,1.1870,-1.4500,30.3820,-44.5040,32.5300
0.9714,0.2560,-0.0990,1.1700,-4.0460,32.2290,-43.5110,32.6700
0.9829,0.2730,-0.1070,1.2170,-6.2900,35.1300,-43.2670,32.6200
0.9950,0.2760,-0.1400,1.2980,-1.0840,36.3360,-44.4890,32.5800
1.0018,0.2520,-0.1600,1.2960,5.6490,40.7790,-44.7480,32.6200
1.0141,0.2620,-0.1600,1.2900,10.6720,40.3510,-45.3890,32.5800
1.0213,0.2370,-0.1230,1.2040,12.4430,42.4890,-45.3740,32.5300
1.0332,0.2000,-0.1040,1.1610,10.7020,40.9470,-44.8400,32.6200
1.0404,0.2290,-0.0910,1.1490,8.4730,37.0690,-44.3820,32.6700
1.0524,0.2340,-0.0880,1.1460,6.8550,36.9770,-44.7480,32.5300
1.0645,0.1980,-0.0820,1.1210,4.7630,36.5800,-43.0690,32.5800
1.0714,0.1930,-0.0860,1.0990,1.4960,44.9160,-40.9160,32.6200
1.0833,0.1810,-0.0940,1.1560,-0.3360,44.7630,-40.7940,32.5800
1.0903,0.1880,-0.1080,1.1460,2.0610,49.1910,-41.9850,32.5300
1.1026,0.1640,-0.1150,1.1390,4.5950,48.2290,-42.5800,32.6200
1.1150,0.1290,-0.1250,1.1560,8.4580,38.7940,-42.6110,32.5800
1.1216,0.1680,-0.1070,1.1250,8.5190,34.9470,-43.0380,32.5300
1.1340,0.1800,-0.1040,1.1030,6.5800,36.9470,-42.1530,32.5800
1.1408,0.1740,-0.0820,1.0810,4.0000,39.3440,-40.8700,32.5300
1.1532,0.1830,-0.0590,1.0590,-0.9310,42.3050,-38.6870,32.4800
1.1598,0.1910,-0.0650,1.0780,-6.0000,47.4500,-36.6560,32.6200
1.1721,0.1630,-0.0690,1.1080,-9.6180,52.5040,-36.1830,32.5300
1.1843,0.1660,-0.0790,1.1140,-12.5500,54.4730,-35.5420,32.5800
1.1910,0.1810,-0.1050,1.1920,-11.6490,55.2520,-36.1530,32.6200
1.2031,0.1770,-0.1360,1.2320,-9.0380,53.4200,-38.4730,32.4800
1.2098,0.1810,-0.1530,1.2620,-3.2520,42.0310,-43.8930,32.6200
1.2222,0.1700,-0.1490,1.2600,2.5500,35.7860,-48.2750,32.5800
1.2346,0.1310,-0.1320,1.1880,6.1980,33.2210,-50.4120,32.6200
1.2414,0.0680,-0.1170,1.1310,3.7100,34.2440,-47.2820,32.5300
1.2535,0.0680,-0.1180,1.1230,-0.5190,41.0230,-41.2370,32.5800
1.2604,0.1000,-0.1280,1.1530,-3.2210,44.4120,-37.8930,32.6200
1.2726,0.0990,-0.1390,1.1630,-4.5190,44.5650,-37.0840,32.5800
1.2847,0.0750,-0.1460,1.1970,-3.7250,39.3740,-38.3510,32.6200
1.2917,0.0800,-0.1690,1.3080,4.7180,28.3510,-40.9310,32.5800
1.3039,0.0740,-0.1440,1.2190,12.7480,29.0840,-42.5340,32.5300
1.3106,0.0720,-0.1280,1.1130,9.7100,21.8320,-43.4500,32.6700
1.3230,0.0680,-0.1090,1.1550,10.0760,28.7330,-40.8400,32.4800
1.3286,0.0820,-0.1030,1.1270,8.5650,33.3740,-37.7710,32.5300
1.3424,0.1040,-0.0880,1.1180,5.4960,35.1300,-36.6410,32.5800
1.3545,0.1020,-0.0880,1.1120,2.6260,31.6340,-38.5040,32.5300
1.3615,0.0680,-0.0850,1.1170,-0.1370,26.0150,-40.6870,32.5800
1.3735,0.0640,-0.1030,1.1600,0.4120,19.1450,-42.2440,32.6200
1.3802,0.1090,-0.1170,1.1830,2.4430,16.8550,-42.9920,32.6700
1.3925,0.1470,-0.1060,1.1930,4.0310,22.7020,-43.7710,32.5800
1.4048,0.1160,-0.1000,1.1880,4.4120,29.6640,-42.4120,32.5300
1.4118,0.0720,-0.0880,1.1550,3.5730,28.7480,-40.0610,32.5800
1.4241,0.0990,-0.0760,1.1550,2.5040,26.6110,-39.2060,32.6200
1.4311,0.2230,-0.0900,1.0740,2.5800,35.3130,-42.9770,32.5800
1.4433,0.0690,-0.0690,1.2200,1.9850,19.6340,-44.7630,32.5300
1.4500,0.1080,-0.0700,1.0990,2.1980,25.3740,-45.3280,32.5800
1.4622,0.0450,-0.0630,1.0980,-2.8090,22.5190,-43.6340,32.5800
1.4746,0.0830,-0.0710,1.1460,-3.8470,22.9470,-41.9540,32.5300
1.4815,0.0810,-0.0900,1.1620,-2.7790,24.2900,-41.7400,32.5800
1.4937,0.0840,-0.0940,1.1480,-2.5800,22.5650,-41.2210,32.6200
1.5005,0.1020,-0.0980,1.1950,-0.5500,22.6870,-42.0150,32.5800
1.5126,0.1040,-0.1060,1.1880,2.8400,20.6110,-43.6950,32.5300
1.5248,0.0770,-0.0740,1.1260,4.1680,18.3820,-45.6950,32.5800
1.5320,0.0740,-0.0480,1.0810,0.2440,15.4810,-46.2440,32.5300
1.5442,0.0730,-0.0600,1.1060,-2.1070,15.5570,-45.4350,32.5300
1.5508,0.1030,-0.0770,1.1310,-3.7560,20.3970,-43.1150,32.5800
1.5633,0.0970,-0.0850,1.1690,-4.3820,23.4960,-41.2210,32.5300
1.5751,0.1000,-0.0980,1.1710,-4.0460,26.7180,-39.8020,32.5800
1.5823,0.1050,-0.1180,1.2230,0.3820,26.6410,-40.1370,32.5300
1.5943,0.0690,-0.1010,1.1560,2.4890,26.5800,-41.0080,32.4800
1.6013,0.0750,-0.0650,1.1270,0.8550,21.4050,-41.4660,32.5300
1.6134,0.0970,-0.0560,1.1380,-0.6870,22.1220,-42.2140,32.5800
1.6209,0.0990,-0.0620,1.1720,0.2440,20.1220,-43.0840,32.5800
1.6328,0.0740,-0.0730,1.1680,2.5190,22.0310,-43.9240,32.6200
1.6447,0.0360,-0.0600,1.0860,-1.3130,20.0460,-42.3510,32.6700
1.6514,0.0580,-0.0320,1.0840,-7.0230,21.0080,-40.3660,32.6200
1.6638,0.0750,-0.0450,1.1340,-8.4430,20.5340,-40.1070,32.5800
1.6704,0.0970,-0.0890,1.2280,-3.8780,18.7630,-40.7790,32.6200
1.6828,0.0850,-0.1020,1.2160,-0.4580,21.1760,-41.4810,32.4800
1.6947,0.0640,-0.0830,1.1450,-1.2520,20.1680,-41.8170,32.6200
1.7020,0.0510,-0.0790,1.1430,-5.6790,17.6950,-41.1600,32.6200
1.7140,0.0980,-0.1110,1.2380,-3.8470,17.3440,-41.3740,32.5800
1.7212,0.1070,-0.1200,1.2450,0.7180,18.2750,-42.3970,32.6200
1.7332,0.0860,-0.1160,1.2140,1.2060,15.6180,-41.9690,32.6700
1.7391,0.0930,-0.0870,1.1970,-0.4580,19.7400,-40.6260,32.5300
1.7523,0.0990,-0.0580,1.1740,-1.1910,20.3660,-41.2370,32.5800
1.7644,0.1060,-0.0530,1.1490,-2.8090,19.1760,-42.4890,32.6200
1.7714,0.1090,-0.0620,1.1690,-3.1150,18.1220,-43.8170,32.6200
1.7834,0.1000,-0.0710,1.1460,-4.8550,19.2520,-43.4050,32.6700
1.7905,0.0830,-0.0900,1.2190,-4.8240,16.9770,-42.9160,32.6200
1.8024,0.0820,-0.1040,1.2200,-2.4730,19.7560,-41.2820,32.5800
1.8143,0.0880,-0.1060,1.1840,-2.4270,21.6030,-40.0760,32.5300
1.8218,0.1250,-0.0960,1.1810,-3.6340,23.7100,-39.4960,32.5800
1.8335,0.1160,-0.0940,1.2010,-2.2290,23.9540,-42.1070,32.6200
1.8407,0.1000,-0.1070,1.2070,1.1300,20.0760,-45.1150,32.6200
1.8526,0.0920,-0.1080,1.2000,3.0080,18.8550,-46.5340,32.6700
1.8649,0.0710,-0.0940,1.1950,4.0310,18.6260,-45.2370,32.6200
1.8718,0.0800,-0.0860,1.1540,2.8240,22.5500,-43.3740,32.5800
1.8840,0.0570,-0.0930,1.1550,0.7790,22.9920,-41.8020,32.7200
1.8911,0.0680,-0.0890,1.1620,-0.4730,24.0000,-40.1070,32.6700
1.9032,0.0810,-0.0760,1.1420,-1.5110,23.5730,-39.6790,32.6200
1.9150,0.0980,-0.0870,1.1800,-1.6340,18.3660,-40.9470,32.5800
1.9223,0.1070,-0.0990,1.1830,0.3660,20.5040,-42.2900,32.5800
1.9345,0.0820,-0.0870,1.1380,-0.7790,21.7100,-40.9620,32.6200
1.9413,0.0910,-0.0810,1.1360,-2.5340,23.0080,-40.1070,32.5300
1.9534,0.1250,-0.0890,1.2140,0.2750,22.1680,-41.8320,32.5300
1.9604,0.1350,-0.0980,1.1900,3.4500,23.0230,-44.6110,32.5800
1.9726,0.1070,-0.0830,1.1310,2.8240,22.5190,-46.4120,32.6200
1.9846,0.0830,-0.0810,1.1510,0.9160,18.6260,-46.9010,32.4800
1.9918,0.0810,-0.0850,1.1570,0.7630,19.3440,-46.5340,32.6200
2.0037,0.0470,-0.0780,1.1180,-2.0460,19.6490,-44.3210,32.6200
2.0106,0.0390,-0.0700,1.1170,-4.8240,19.2980,-41.9240,32.6200
2.0230,0.0850,-0.0720,1.1730,-3.2980,24.0760,-40.2440,32.4400
2.0351,0.0700,-0.0780,1.1630,-1.4350,27.0530,-39.7100,32.5800
2.0420,0.0840,-0.0710,1.1420,-2.5340,24.9920,-39.5110,32.6200
2.0542,0.1040,-0.0770,1.2040,-0.3050,22.7630,-41.3890,32.4800
2.0611,0.1000,-0.0740,1.1770,2.3510,24.3050,-42.9010,32.6200
2.0732,0.0800,-0.0420,1.1300,0.6410,22.7180,-43.8320,32.5300
2.0805,0.0780,-0.0420,1.1340,-1.6790,20.8240,-43.7400,32.5300
2.0923,0.0790,-0.0510,1.1590,-0.9770,22.0460,-42.5500,32.6200
2.1044,0.0820,-0.0510,1.1370,-2.8240,21.9240,-41.2820,32.5800
2.1113,0.1000,-0.0490,1.1470,-4.9470,19.2370,-40.7790,32.6200
2.1234,0.1210,-0.0660,1.1780,-4.3360,20.3360,-42.1830,32.5800
2.1304,0.1120,-0.0620,1.1510,-4.4890,19.4810,-44.6870,32.4400
2.1426,0.1130,-0.0600,1.1780,-5.7710,18.6870,-45.7560,32.6200
2.1547,0.1050,-0.0730,1.2150,-4.5040,21.0840,-46.4120,32.6200
2.1615,0.1000,-0.0930,1.2180,-2.9160,21.6640,-45.7250,32.5300
2.1737,0.0930,-0.1070,1.2320,-1.3590,25.4350,-44.6260,32.5800
2.1807,0.0740,-0.1100,1.2150,-0.0150,28.0000,-44.0460,32.5300
2.1927,0.0640,-0.1030,1.2050,0.9920,26.8850,-43.7250,32.5800
2.2049,0.0630,-0.0940,1.1930,1.1150,23.4500,-44.8550,32.5300
2.2118,0.0620,-0.0900,1.1600,0.0610,20.1220,-46.2750,32.5300
2.2238,0.0480,-0.0840,1.1780,-0.5950,18.7330,-46.0920,32.5300
2.2311,0.0440,-0.0850,1.1820,-1.5270,17.5880,-43.7100,32.6200
2.2429,0.0580,-0.0780,1.1890,-2.1070,21.8020,-41.3280,32.6700
2.2551,0.0620,-0.0720,1.1650,-2.4890,23.5420,-40.3360,32.6200
2.2621,0.0720,-0.0720,1.1830,-2.2900,23.1300,-40.5800,32.4800
2.2742,0.0760,-0.0780,1.1940,-0.9160,18.9310,-42.2290,32.6200
2.2812,0.0900,-0.0850,1.2020,1.2060,15.2210,-44.0920,32.6200
2.2933,0.0820,-0.0910,1.1920,2.2440,16.4120,-45.3590,32.5300
2.3005,0.0850,-0.0830,1.1720,1.9540,17.8170,-44.9470,32.5300
2.3127,0.0700,-0.0950,1.2090,2.0920,22.7020,-42.9770,32.5800
2.3246,0.0660,-0.0930,1.1860,3.2820,24.6560,-41.0840,32.5300
2.3318,0.0600,-0.0770,1.1440,0.6410,25.3130,-39.1600,32.5800
2.3439,0.0640,-0.0640,1.1380,-1.9850,22.3510,-39.5570,32.6200
2.3509,0.0610,-0.0680,1.1770,-1.5880,17.7400,-40.2900,32.5800
2.3630,0.1080,-0.0960,1.2360,3.1760,17.5420,-42.2290,32.6200
2.3751,0.0730,-0.0930,1.1840,5.4200,18.5500,-42.6720,32.5300
2.3820,0.0540,-0.0720,1.1570,3.1910,18.0760,-41.1150,32.5800
2.3942,0.0930,-0.0540,1.1610,1.2670,18.3820,-40.0920,32.5300
2.4013,0.1250,-0.0470,1.1540,0.4580,19.7250,-41.0990,32.5800
2.4134,0.1360,-0.0470,1.1630,-1.0990,20.9010,-43.0230,32.6200
2.4203,0.1320,-0.0670,1.1930,-1.2820,22.3820,-43.9850,32.6700
2.4325,0.1240,-0.0740,1.2190,0.9920,26.2140,-44.7630,32.5300
2.4446,0.0730,-0.0650,1.1650,1.5730,29.4660,-44.3360,32.6200
2.4515,0.0420,-0.0620,1.1420,-1.4500,27.9540,-42.7020,32.5800
2.4636,0.0350,-0.0600,1.1990,-1.2370,23.0230,-41.7560,32.5300
2.4709,0.0810,-0.0750,1.2200,2.8550,22.3660,-42.4120,32.5800
2.4827,0.0700,-0.0780,1.2050,4.2750,21.4960,-43.9390,32.5300
2.4949,0.0710,-0.0710,1.2020,4.1220,19.2210,-44.7180,32.5800
2.5019,0.0720,-0.0520,1.1770,3.5570,19.9690,-45.3890,32.5300
2.5141,0.0520,-0.0530,1.1790,0.7020,19.9690,-44.0310,32.6200
2.5211,0.0770,-0.0510,1.2170,0.1530,22.1530,-42.2440,32.6700
2.5335,0.0710,-0.0420,1.1970,0.2600,24.6110,-41.6790,32.7200
2.5406,0.0470,-0.0410,1.2040,-1.3130,21.7250,-41.0080,32.5800
2.5525,0.0860,-0.0650,1.2410,0.1370,20.8850,-40.5500,32.6200
2.5645,0.0880,-0.0730,1.3050,4.0920,17.7560,-42.2290,32.6700
2.5719,0.1060,-0.0700,1.2820,6.9310,18.7330,-43.2980,32.5300
2.5839,0.0980,-0.0540,1.2580,7.8320,18.6410,-43.7100,32.6200
2.5910,0.0790,-0.0720,1.2440,10.9620,23.4960,-44.3820,32.5800
2.6030,0.1110,-0.0460,1.2010,6.7020,15.5110,-43.6340,32.6200
2.6150,0.0860,-0.0240,1.2490,4.7020,22.9310,-42.4730,32.5800
2.6224,0.1060,-0.0350,1.2250,4.3360,16.5950,-43.5270,32.5300
2.6344,0.0780,-0.0390,1.2460,1.9690,20.8400,-42.2900,32.5800
2.6415,0.0940,-0.0590,1.2630,3.2820,19.8170,-42.0920,32.6200
2.6537,0.0820,-0.0730,1.3210,7.4500,18.7180,-43.6180,32.6200
2.6606,0.0880,-0.0730,1.3120,12.4580,16.0310,-45.2370,32.6700
2.6728,0.0640,-0.0530,1.2520,14.7330,18.0460,-45.6490,32.6200
2.6849,0.0440,-0.0170,1.2070,14.1830,16.3820,-45.0990,32.5800
2.6917,0.0390,-0.0130,1.1720,13.6640,14.3360,-44.3050,32.6200
2.7039,0.0410,-0.0070,1.1720,8.3660,13.8020,-42.7790,32.5800
2.7109,0.0650,-0.0130,1.1870,6.8550,11.0530,-42.4430,32.6200
2.7230,0.0400,-0.0170,1.2050,4.2900,12.9770,-41.8470,32.6200
2.7350,0.0380,-0.0150,1.1760,3.9850,9.8320,-40.9470,32.6700
2.7423,0.0660,-0.0250,1.1810,1.8630,9.3280,-40.1980,32.6200
2.7547,0.0880,-0.0460,1.2600,5.3590,6.8240,-41.5880,32.5800
2.7619,0.0850,-0.0700,1.2640,10.6410,10.4730,-42.0310,32.6200
2.7735,0.0510,-0.0490,1.2220,11.6790,13.6340,-40.5040,32.5800
2.7807,0.0630,-0.0250,1.1690,9.8630,10.6560,-39.2370,32.5300
2.7930,0.0870,-0.0180,1.1810,7.9390,10.9620,-39.3890,32.6200
2.8051,0.1230,-0.0180,1.2010,8.4430,10.9310,-40.0920,32.5800
2.8119,0.1100,-0.0160,1.1720,8.2440,13.2210,-41.4350,32.6200
2.8241,0.0820,-0.0200,1.1470,6.5190,10.5500,-41.8930,32.6700
2.8313,0.0880,-0.0450,1.2100,5.4350,5.7710,-42.6720,32.6200
2.8435,0.1280,-0.0370,1.1880,8.6560,9.2980,-43.3590,32.6700
2.8507,0.0940,-0.0260,1.1560,6.2440,8.5650,-42.2140,32.6200
2.8631,0.1230,-0.0380,1.1510,5.3440,14.0610,-42.2600,32.6200
2.8751,0.0180,-0.1000,1.2090,-3.0530,24.6260,-41.0990,32.5800
2.8820,0.0940,-0.0180,1.3130,6.1530,-2.7480,-39.7710,32.6200
2.8942,0.1310,-0.0420,1.2490,16.0310,22.1530,-38.6560,32.6700
2.9011,0.1030,-0.0020,1.1260,13.0530,11.4350,-40.2440,32.6200
2.9133,0.1220,-0.0010,1.1700,10.4580,13.2370,-40.8240,32.6700
2.9190,0.1400,0.1100,1.1090,3.3740,19.4960,-37.8320,32.7200
2.9325,0.1360,0.0040,1.2650,12.8850,7.2670,-40.6410,32.6200
2.9447,0.1270,-0.0190,1.1400,14.0920,18.0460,-41.2210,32.5800
2.9515,0.0840,0.0150,1.1310,11.2520,9.8930,-42.0760,32.6200
2.9639,0.1090,0.0070,1.1740,9.6030,16.2600,-42.9310,32.5800
2.9713,0.1130,-0.0200,1.1800,10.6110,15.3280,-42.1530,32.6200
2.9830,0.1420,0.0080,1.2220,11.3890,17.3130,-42.4730,32.6700
2.9951,0.0810,-0.0280,1.2200,10.4430,28.3970,-42.4270,32.6200
3.0023,0.1310,-0.0120,1.2370,20.2600,15.4810,-42.1370,32.6200
3.0140,0.0950,0.0070,1.1530,19.5730,22.1980,-41.6180,32.5800
3.0212,0.0920,0.0350,1.1430,17.2820,12.5500,-42.0000,32.6200
3.0334,0.1080,0.0350,1.1220,16.8240,15.3280,-41.9080,32.6700
3.0406,0.1100,0.0450,1.1120,14.1370,11.8170,-42.4890,32.6200
3.0527,0.1150,0.0510,1.1110,12.1980,13.2520,-43.2060,32.5800
3.0648,0.1040,0.0650,1.0810,9.1300,7.4660,-43.2980,32.6200
3.0718,0.0420,0.0660,1.2330,4.5190,17.9080,-42.8240,32.5300
3.0839,0.1450,0.0230,1.2020,12.5190,6.7020,-43.2520,32.6700
3.0908,0.1560,0.0160,1.2210,13.4200,18.6410,-43.2060,32.6200
3.1031,0.1040,0.0320,1.2020,16.7940,21.2210,-42.3660,32.6700
3.1102,0.1060,0.0540,1.1190,13.4500,21.5570,-40.3970,32.6200
3.1224,0.1240,0.0640,1.1450,11.8930,17.8020,-39.4500,32.5800
3.1348,0.1460,0.0780,1.1490,12.2900,17.2670,-40.2440,32.6200
3.1416,0.1450,0.0800,1.1210,10.3510,15.9240,-40.9010,32.6200
3.1538,0.2310,0.0000,1.0690,12.4120,24.0760,-44.2440,32.4800
3.1607,0.0580,0.1040,1.2540,8.7020,3.0690,-40.7790,32.6200
3.1732,0.1990,0.0970,1.1350,11.8020,6.7480,-41.8320,32.5800
3.1801,0.1210,0.0940,1.2070,14.1980,11.5270,-42.0460,32.5300
3.1925,0.1720,0.1140,1.1420,14.2440,9.7250,-42.3050,32.5800
3.2046,0.1450,0.1350,1.1380,11.6640,13.6180,-41.4810,32.7200
3.2117,0.1770,0.1580,1.1050,8.4580,13.2520,-41.2060,32.6200
3.2241,0.2330,0.1610,1.1280,3.8780,16.5800,-41.4200,32.5800
3.2310,0.1990,0.1250,1.1930,5.0080,16.2140,-43.3130,32.6200
3.2435,0.1720,0.1040,1.1720,6.2290,16.4120,-45.3280,32.5800
3.2505,0.1630,0.0670,1.2450,8.4270,14.1680,-47.8780,32.5300
3.2628,0.1630,0.0330,1.2480,12.7480,11.6340,-50.7330,32.4800
3.2752,0.1040,0.0230,1.2480,14.9920,11.1600,-50.9310,32.6200
3.2824,0.0900,0.0200,1.2220,15.5880,11.7400,-48.3820,32.6200
3.2943,0.0770,0.0380,1.1940,15.0840,11.9850,-46.0000,32.5800
3.3013,0.0940,0.0550,1.1880,14.3210,11.1760,-45.1910,32.5300
3.3135,0.0900,0.0730,1.1910,15.1450,9.6790,-45.5420,32.5800
3.3207,0.0600,0.0520,1.1980,18.7180,6.7180,-45.9240,32.5300
3.3328,0.0810,0.0710,1.1930,19.6340,7.9240,-45.0230,32.5800
3.3451,0.0700,0.0750,1.2090,19.9690,7.9390,-41.7710,32.6200
3.3523,0.1060,0.0720,1.1770,21.4500,13.4810,-38.6720,32.6200
3.3644,0.0880,0.1020,1.1500,20.6720,13.7860,-35.4350,32.5800
3.3718,0.1240,0.1280,1.1170,18.9620,14.8240,-33.7710,32.5300
3.3837,0.1680,0.1210,1.0520,20.3050,15.9080,-36.9160,32.5800
3.3906,0.1000,0.1770,1.1060,10.2750,-1.3280,-38.2750,32.7200
3.4027,0.2800,0.1870,1.1060,11.9390,8.7790,-41.1450,32.5800
3.4151,0.2210,0.1680,1.1030,13.1150,9.5110,-43.8780,32.5300
3.4223,0.1890,0.1460,1.1260,11.6180,10.2440,-44.8400,32.6700
3.4344,0.1730,0.1430,1.1390,11.3440,12.6870,-43.8170,32.6200
3.4411,0.1560,0.1230,1.1650,15.1600,10.0000,-43.9850,32.6200
3.4534,0.1380,0.1240,1.1500,16.7790,11.4050,-43.3740,32.5800
3.4605,0.1120,0.1300,1.1160,15.6640,13.4200,-41.1450,32.5300
3.4727,0.1270,0.1460,1.0880,12.3970,11.9850,-38.8090,32.5800
3.4848,0.1400,0.1580,1.0920,10.3210,11.8320,-37.4660,32.7200
3.4920,0.1650,0.1590,1.1140,5.4200,9.5420,-36.9470,32.4800
3.5041,0.1880,0.1400,1.1390,6.1220,10.7940,-38.4890,32.5300
3.5113,0.2080,0.1320,1.1590,6.5950,9.7860,-40.7180,32.5800
3.5236,0.2180,0.1410,1.1550,7.6030,10.4580,-42.9310,32.5800
3.5307,0.2430,0.1250,1.1650,7.4810,10.3970,-42.5040,32.6200
3.5430,0.2440,0.2140,1.0950,-3.4200,26.4270,-42.1370,32.5800
3.5552,0.2170,0.1660,1.2050,7.2980,13.8020,-40.7020,32.6200
3.5622,0.2420,0.1490,1.1490,6.4120,28.9010,-40.0920,32.5800
3.5747,0.2290,0.1470,1.1360,7.2520,22.0460,-41.6790,32.5300
3.5818,0.2120,0.1350,1.1270,5.4810,19.1600,-44.5040,32.5800
3.5940,0.1910,0.1270,1.1480,4.0610,16.4890,-45.0080,32.5800
3.6011,0.1770,0.1460,1.1230,5.8630,12.5340,-46.7020,32.6200
3.6132,0.1580,0.1510,1.1070,4.0760,12.6110,-45.5880,32.5800
3.6203,0.1440,0.1450,1.1460,3.4350,15.4200,-43.1300,32.6200
3.6327,0.1530,0.1330,1.1470,3.2520,16.5340,-39.7250,32.5800
3.6449,0.2180,0.1260,1.1590,3.2980,19.5420,-37.1600,32.6200
3.6521,0.2100,0.1490,1.1580,1.2980,16.8850,-37.4350,32.5800
3.6641,0.2760,0.2400,1.0890,-2.3510,41.9690,-34.9920,32.6200
3.6714,0.1950,0.1560,1.2250,4.0760,14.0920,-37.0380,32.4400
3.6834,0.3030,0.1730,1.1110,3.0530,29.3280,-36.8550,32.5800
3.6905,0.3030,0.1920,1.1090,0.0610,21.4660,-38.7790,32.6200
3.7030,0.3850,0.2330,1.0640,-16.4890,33.5880,-39.5270,32.5800
3.7148,0.4230,0.1830,0.9410,-3.3440,33.6640,-48.5650,32.5300
3.7221,0.3020,0.1670,1.3700,4.4730,18.5040,-50.6260,32.5800
3.7342,0.3550,0.1360,1.2060,15.6490,33.5420,-54.5340,32.6200
3.7414,0.1770,0.1570,1.1540,14.6260,31.5570,-53.8630,32.5800
3.7534,0.1970,0.1460,1.1040,12.2290,27.5570,-52.4270,32.6200
3.7606,0.1600,0.1480,1.1420,11.7100,27.7400,-50.6560,32.6200
3.7728,0.1560,0.1380,1.1210,9.6030,26.8850,-49.2520,32.6200
3.7849,0.1210,0.1520,1.1130,6.6720,26.6560,-47.7860,32.6200
3.7918,0.1290,0.1440,1.1330,6.1980,21.0380,-46.2140,32.5800
3.8053,0.1610,0.1420,1.1600,6.1830,23.8320,-45.0840,32.5300
3.8110,0.1600,0.1710,1.1570,5.4200,23.2670,-44.5500,32.5800
3.8235,0.1870,0.1670,1.1760,6.2600,23.5570,-44.2750,32.5300
3.8305,0.1970,0.1630,1.2430,10.6410,22.4430,-45.4660,32.5800
3.8429,0.2030,0.1800,1.1970,13.2520,28.1680,-45.7560,32.5300
3.8551,0.1910,0.1940,1.1810,12.7630,27.6340,-45.6640,32.6200
3.8619,0.1840,0.2010,1.1790,15.3280,27.2370,-46.2600,32.5800
3.8741,0.1700,0.2190,1.1090,14.7790,27.3440,-45.5270,32.6200
3.8814,0.1660,0.2390,1.0900,10.5340,22.5040,-45.8780,32.5800
3.8934,0.1650,0.2480,1.0990,8.6260,19.7860,-46.5040,32.5300
3.9006,0.1620,0.2470,1.0980,7.3590,17.9080,-47.3130,32.6700
3.9127,0.1690,0.2520,1.1010,4.7020,16.5950,-47.2210,32.6200
3.9252,0.2100,0.2230,1.1640,4.3360,14.3820,-48.8400,32.5300
3.9324,0.1970,0.1900,1.2590,10.5950,13.8780,-51.2060,32.6700
3.9444,0.1560,0.1860,1.2090,14.4580,18.5950,-50.8550,32.5300
3.9513,0.0770,0.2220,1.1240,11.6180,20.3050,-45.9850,32.5800
3.9635,0.1090,0.2450,1.0810,7.1300,17.9390,-42.2600,32.5300
3.9708,0.1530,0.2520,1.1110,4.6870,11.5730,-41.4960,32.5800
3.9830,0.2440,0.2360,1.1540,2.5650,10.2600,-44.4120,32.6200
3.9951,0.2770,0.2330,1.1860,3.6790,10.4890,-49.9540,32.6200
