Time AX AY AZ GX GY GZ
0.014742292000008206 0.116 -0.208 0.969 0.901 2.992 -7.405
0.02713720799999919 0.094 -0.191 0.981 -0.374 2.786 -3.229
0.03956987500001219 0.078 -0.191 0.962 0.672 2.863 -2.893
0.04646925000000124 0.068 -0.186 0.966 0.931 2.542 -2.954
0.059014875000002576 0.067 -0.168 0.97 0.481 -0.122 -1.664
0.06608133299999963 0.061 -0.166 0.957 0.595 -1.863 -2.969
0.07856283300000655 0.081 -0.153 0.977 0.168 -2.328 -1.26
0.08590587500000879 0.095 -0.149 0.962 -0.206 -2.885 -0.542
0.09812733300000787 0.12 -0.144 0.976 0.076 -1.252 -2.046
0.10540158300000257 0.132 -0.159 0.975 1.42 -0.595 -3.481
0.11752566700000955 0.145 -0.173 0.993 0.221 0.786 1.176
0.12472637500000872 0.114 -0.159 0.961 -0.817 0.588 1.023
0.13745025000000055 0.104 -0.146 0.957 -0.389 1.756 1.878
0.14333420799999885 0.099 -0.14 0.972 -0.328 0.656 -0.031
0.1569680000000062 0.118 -0.151 0.96 0.29 -0.267 -1.954
0.16924816700000633 0.123 -0.147 0.978 0.023 0.183 -3.145
0.176761292000009 0.116 -0.14 0.966 -1.13 0.389 0.069
0.18900979200000734 0.112 -0.155 0.964 -3.931 1.359 1.87
0.19628829200000553 0.1 -0.157 0.98 -2.855 1.939 1.588
0.20853862500000275 0.088 -0.161 0.961 -2.725 1.229 1.053
0.2160877499999998 0.104 -0.167 0.957 -1.321 1.015 -1.74
0.2281051670000096 0.098 -0.173 0.954 -0.824 0.58 -2.885
0.23559825000000956 0.112 -0.161 0.969 -0.756 0.595 -1.603
0.24787691699999925 0.108 -0.158 0.958 -1.145 0.748 0.832
0.2551707500000049 0.108 -0.151 0.954 -2.565 1.053 2.107
0.26740654200000336 0.099 -0.152 0.952 -4.374 0.557 2.786
0.27488537500001087 0.112 -0.17 0.953 -3.962 1.366 2.137
0.287261958000002 0.11 -0.164 0.963 -4.107 1.58 2.565
0.299455750000007 0.112 -0.17 0.97 -4.183 2.069 3.969
0.30683154200001184 0.102 -0.169 0.969 -3.931 2.641 4.206
0.31925041700000634 0.1 -0.159 0.965 -3.924 1.893 1.344
0.3265193750000037 0.095 -0.159 0.971 -3.626 1.229 1.084
0.3387694580000016 0.111 -0.173 0.983 -3.809 2.244 -1.389
0.3460711250000088 0.117 -0.171 0.99 -5.977 1.42 -0.244
0.35833595800001206 0.114 -0.174 0.98 -2.389 2.466 -2.359
0.3656351250000114 0.113 -0.174 0.99 -1.84 2.221 -1.664
0.3778876670000102 0.118 -0.193 0.994 -1.183 2.458 -1.26
0.38514754199999857 0.107 -0.179 0.989 -1.534 2.58 -0.137
0.3974147920000064 0.101 -0.171 0.987 -1.702 2.939 0.313
0.4049457920000066 0.097 -0.168 0.984 -1.885 2.702 -1.412
0.4169654170000001 0.091 -0.146 0.981 -3.366 1.557 -2.786
0.4292199170000117 0.086 -0.142 0.98 -4.763 1.45 -4.198
0.4364920420000118 0.093 -0.16 0.981 -6.595 1.26 -4.702
0.4487778330000083 0.104 -0.18 0.997 -7.237 2.176 -3.748
0.45606700000000444 0.093 -0.189 0.998 -8.519 1.832 -0.099
0.4683123330000001 0.071 -0.195 0.991 -3.832 2.924 -2.634
0.47582116700000654 0.077 -0.224 1.001 -3.672 2.427 1.359
0.4881327080000091 0.065 -0.203 0.991 -3.198 0.275 3.977
0.49535866700000497 0.066 -0.178 0.98 -1.969 0.015 5.725
0.5076297500000067 0.067 -0.175 0.973 2.489 -0.473 -0.13
0.5149770419999982 0.092 -0.177 0.987 3.282 -2.13 -2.481
0.5271876250000105 0.107 -0.158 0.992 1.504 -2.366 -2.031
0.539323708000012 0.103 -0.142 0.968 -0.557 -2.618 -0.55
0.546816542000002 0.141 -0.151 0.994 -1.191 0.359 0.969
0.558638667000011 0.103 -0.204 0.979 -10.198 -5.58 5.618
0.5659476250000068 0.11 -0.151 0.983 2.382 0.519 1.405
0.5784093750000068 0.137 -0.184 0.991 -2.023 -2.542 2.695
0.5855290000000082 0.132 -0.156 0.997 -0.931 -0.275 4.672
0.5979906670000048 0.103 -0.142 0.962 -0.397 -1.298 0.969
0.6056367919999985 0.106 -0.151 0.97 0.824 0.29 -0.641
0.617726458000007 0.122 -0.159 0.976 -0.74 -1.74 -3.802
0.6249457920000054 0.118 -0.137 0.979 -1.458 -1.664 -3.229
0.6369178329999983 0.118 -0.148 0.968 -4.198 -1.611 -2.985
0.6492194170000118 0.137 -0.157 0.97 -6.641 0.71 -1.618
0.6565462500000052 0.125 -0.167 0.973 -8.084 -0.947 0.382
0.6687670419999989 0.114 -0.167 0.969 -5.992 -0.328 -1.008
0.6760562080000057 0.123 -0.181 0.977 -7.748 2.511 4.13
0.6882812919999992 0.128 -0.177 0.975 -7.519 0.061 1.702
0.6955594169999983 0.097 -0.156 0.944 -5.725 0.321 -1.183
0.7077500000000043 0.091 -0.189 0.967 -4.351 0.16 -3.176
0.715088250000008 0.095 -0.178 0.96 -3.198 -1.58 -6.595
0.7274403330000041 0.097 -0.15 0.968 -3.122 -1.405 -9.618
0.7394561250000038 0.107 -0.164 0.969 -3.389 -1.656 -10.244
0.7467675000000042 0.14 -0.2 1.004 -3.405 0.618 -7.015
0.7590094580000084 0.137 -0.183 0.999 -4.504 1.0 -2.412
0.7662303750000063 0.143 -0.222 0.99 0.122 4.969 -1.878
0.7785236250000054 0.112 -0.245 1.007 0.282 4.061 -0.351
0.7860672080000057 0.099 -0.208 0.977 1.458 2.595 1.084
0.7983493750000008 0.066 -0.171 0.95 7.26 2.672 -7.71
0.8058364580000017 0.063 -0.125 0.942 0.832 -3.466 -6.092
0.8179017500000043 0.089 -0.121 0.949 0.221 -3.939 -11.664
0.8252022500000038 0.124 -0.123 0.961 -5.878 -3.366 -9.42
0.837304875000001 0.153 -0.165 0.983 -6.779 -2.16 -9.206
0.8494373750000079 0.144 -0.191 1.007 -8.695 0.153 -5.389
0.8567657500000081 0.145 -0.219 0.992 -8.817 0.168 -0.626
0.8689915420000034 0.118 -0.213 0.988 -2.916 4.374 -0.908
0.876529167000001 0.096 -0.211 0.972 -3.893 2.389 2.725
0.8887814170000041 0.093 -0.211 0.97 1.924 2.733 -1.008
0.8960618330000045 0.079 -0.179 0.953 4.061 1.412 -3.183
0.9083259169999991 0.102 -0.17 0.968 3.634 0.588 -3.74
0.9158422080000008 0.089 -0.139 0.96 0.321 -1.405 -4.939
0.9278689170000121 0.082 -0.105 0.929 -2.832 -3.695 -9.069
0.9351945830000119 0.118 -0.161 0.975 -2.282 -2.176 -12.84
0.9472271250000119 0.151 -0.204 0.986 -2.42 -0.916 -14.42
0.9592267080000028 0.131 -0.19 0.969 0.55 0.244 -16.382
0.966761333000008 0.094 -0.201 0.969 3.099 0.519 -13.641
0.9787731250000036 0.09 -0.23 0.965 4.947 -0.206 -11.015
0.986045500000003 0.089 -0.212 0.955 3.26 -0.374 -6.817
0.9983181250000115 0.096 -0.2 0.942 6.267 -0.305 -8.344
1.0058427499999993 0.114 -0.236 0.975 9.145 0.008 -9.519
1.017916083000003 0.103 -0.187 0.963 8.595 -2.267 -11.634
1.0252334999999988 0.104 -0.154 0.943 11.427 -2.26 -15.504
1.0372211669999984 0.124 -0.165 0.969 8.405 -0.565 -14.115
1.0494407500000023 0.157 -0.153 0.967 2.206 0.405 -8.519
1.056955000000002 0.163 -0.157 0.961 2.153 4.977 -7.427
1.0689969579999996 0.12 -0.135 0.95 -2.588 5.053 -1.74
1.0765445420000077 0.117 -0.16 0.949 -1.817 6.511 1.962
1.0887659580000104 0.09 -0.174 0.945 -3.351 7.481 2.435
1.0963071670000062 0.094 -0.16 0.939 -1.534 7.634 3.26
1.1085752080000049 0.076 -0.151 0.944 1.718 7.718 -0.748
1.1155496249999999 0.069 -0.167 0.946 3.038 4.962 -2.229
1.1281137500000114 0.045 -0.161 0.927 4.244 2.0 -8.565
1.1352529170000025 0.048 -0.117 0.929 2.321 -1.115 -5.534
1.1478834170000027 0.097 -0.167 0.959 1.855 0.023 -7.649
1.1551680000000033 0.084 -0.15 0.963 -1.053 0.298 -4.336
1.1674219580000056 0.094 -0.161 0.957 0.626 0.626 -3.344
1.1749337920000045 0.11 -0.212 0.986 0.725 1.099 2.267
1.1872288750000024 0.113 -0.189 0.973 -2.863 2.565 8.069
1.199440542000005 0.109 -0.169 0.974 2.191 4.221 2.573
1.2069754170000095 0.088 -0.156 0.973 3.252 2.916 2.122
1.2194777079999994 0.101 -0.173 0.976 3.649 1.481 2.351
1.2267785000000089 0.114 -0.152 0.975 3.832 2.389 -1.244
1.2390054580000083 0.102 -0.095 0.959 0.786 0.962 -5.267
1.2464941670000087 0.137 -0.129 0.982 0.328 2.656 -8.466
1.2587882920000055 0.153 -0.179 0.993 -2.802 2.947 -6.038
1.2660269580000119 0.121 -0.174 1.009 -7.351 5.076 1.504
1.2783422500000086 0.121 -0.17 0.965 -0.313 6.817 2.443
1.285685749999999 0.114 -0.178 0.985 -0.099 7.412 1.962
1.2980621250000013 0.119 -0.158 1.006 0.29 8.519 4.924
1.3056517920000061 0.125 -0.152 0.975 5.489 14.733 2.702
1.3178644999999989 0.09 -0.174 0.966 3.977 9.969 -1.389
1.3254262500000067 0.101 -0.119 0.974 0.26 8.359 0.115
1.3376259580000038 0.1 -0.137 0.954 1.221 7.885 -6.794
1.345193208000012 0.105 -0.193 0.977 1.847 6.885 -8.443
1.3574162920000106 0.094 -0.181 0.969 4.221 5.053 -8.847
1.3633424580000053 0.089 -0.208 0.979 8.748 4.45 -7.481
1.376963833000005 0.101 -0.197 0.986 9.519 3.473 -2.786
1.3892228330000052 0.096 -0.156 0.965 10.588 4.076 -2.282
1.396756625000009 0.094 -0.109 0.949 9.061 3.412 -4.275
1.4089879170000046 0.13 -0.073 0.976 3.099 3.939 -5.527
1.4162813750000112 0.133 -0.078 0.956 -1.084 4.931 -9.031
1.4283160420000058 0.124 -0.133 0.961 -0.374 7.038 -15.16
1.4356563750000078 0.1 -0.16 0.988 -0.748 7.42 -10.794
1.4478530000000092 0.098 -0.201 0.988 0.084 8.099 -4.405
1.4553481250000004 0.094 -0.205 0.987 0.901 9.023 1.366
1.4678793750000096 0.05 -0.19 0.962 1.702 8.099 3.443
1.4754460420000015 0.042 -0.137 0.951 0.687 4.221 3.527
1.487431958000002 0.063 -0.116 0.933 -1.328 1.137 -2.206
1.4935207919999982 0.102 -0.105 0.941 -2.672 -1.244 -8.992
1.506980833 0.135 -0.115 0.961 -0.031 1.382 -18.527
1.5190310830000016 0.14 -0.122 0.983 -2.817 2.29 -16.55
1.5261762080000096 0.135 -0.133 0.977 -1.878 4.183 -14.634
1.53838312500001 0.109 -0.169 0.964 -2.351 5.298 -12.519
1.545882375000005 0.119 -0.195 1.003 -4.038 8.557 -4.473
1.5577606670000108 0.089 -0.192 0.985 -6.771 13.053 4.855
1.5653672920000048 0.038 -0.169 0.972 -10.305 9.0 9.427
1.577701833000006 0.036 -0.159 0.959 -5.947 9.305 7.229
1.584945250000004 0.026 -0.142 0.936 -8.702 5.595 4.649
1.5972500419999989 0.035 -0.139 0.929 -8.84 5.405 -0.397
1.6094551250000109 0.033 -0.171 0.946 -6.786 3.344 -5.458
1.6168115830000005 0.034 -0.198 0.948 -8.504 -0.405 -2.58
1.628789917000006 0.039 -0.169 0.952 -3.328 -2.076 -6.832
1.6360413330000085 0.07 -0.179 0.957 -3.038 -2.725 -6.145
1.6480757920000002 0.088 -0.183 0.979 -4.397 -1.71 -5.336
1.655359875000002 0.07 -0.166 0.963 -3.099 -1.725 -7.603
1.667609750000011 0.087 -0.195 0.986 0.527 0.023 -8.031
1.6748956250000049 0.056 -0.17 0.972 -3.496 -0.389 -2.13
1.687087292000001 0.063 -0.165 0.963 -6.214 -0.031 2.076
1.6992634170000116 0.051 -0.123 0.949 -13.458 0.588 11.771
1.7067154170000123 0.07 -0.197 0.964 -8.908 3.45 7.908
1.7190326250000112 0.039 -0.184 0.96 -10.191 1.107 8.305
1.7262829579999988 0.053 -0.188 0.968 -7.595 1.053 6.366
1.7385217080000075 0.044 -0.193 0.948 -6.374 -2.389 1.992
1.7458058330000057 0.062 -0.224 0.982 -1.336 -0.832 -1.725
1.7581144170000016 0.058 -0.184 0.969 -7.389 -2.244 2.649
1.765388833000003 0.071 -0.166 0.933 1.725 7.45 -1.832
1.7776292920000003 0.014 -0.151 0.962 -4.977 -5.519 -3.084
1.7849059580000102 0.058 -0.219 0.96 -0.565 -4.534 -6.397
1.7969553329999997 0.065 -0.175 0.963 -2.893 -6.397 -2.977
1.8089521250000047 0.064 -0.168 0.956 -3.542 -5.069 -2.26
1.8165122500000024 0.063 -0.18 0.959 0.931 -5.229 -4.573
1.828546166999999 0.047 -0.159 0.954 -0.328 -5.557 -1.13
1.8358234170000003 0.065 -0.16 0.963 -1.832 -8.305 1.405
1.8480669170000112 0.062 -0.169 0.948 -7.328 -7.855 7.458
1.8553223330000037 0.073 -0.165 0.964 -0.87 -1.42 2.305
1.867701083 0.08 -0.145 0.945 -6.565 -6.84 -1.748
1.8749457079999985 0.122 -0.168 0.957 -4.473 -3.641 -8.061
1.8869402079999986 0.128 -0.182 0.968 -3.42 -2.504 -10.366
1.898985292000006 0.092 -0.184 0.962 -2.588 -1.71 -12.374
1.9063150420000028 0.067 -0.207 0.962 0.298 -2.809 -13.802
1.9183072500000122 0.064 -0.223 0.955 -2.0 -4.443 -9.145
1.925584833000002 0.054 -0.184 0.957 -1.977 -3.954 -6.496
1.9376035000000087 0.046 -0.18 0.939 -2.412 -5.069 -3.763
1.9449117919999992 0.035 -0.191 0.938 -2.237 -6.656 -2.84
1.9572006249999987 0.055 -0.17 0.939 -2.756 -7.794 -0.252
1.9692098750000042 0.055 -0.166 0.947 -1.679 -7.756 -3.466
1.9764790000000119 0.086 -0.196 0.97 -1.641 -7.13 -0.985
1.9887575420000019 0.095 -0.171 0.977 -2.687 -6.832 1.931
1.9960803750000053 0.125 -0.214 0.988 0.71 -4.405 2.771
2.0082982920000063 0.106 -0.181 0.981 -1.229 -4.931 4.573
2.0158429580000075 0.097 -0.16 0.973 2.267 -3.756 1.137
2.0281354580000084 0.098 -0.165 0.968 1.298 -5.405 0.939
2.0354002079999987 0.082 -0.156 0.972 -0.511 -6.435 1.832
2.047644500000004 0.109 -0.155 0.975 -1.626 -7.405 0.351
2.0548961670000097 0.14 -0.176 1.0 -3.42 -6.069 3.328
2.067175542000001 0.152 -0.192 1.019 -0.55 -2.947 6.275
2.0792075829999987 0.118 -0.188 0.989 -0.771 -4.427 6.58
2.0867369170000103 0.108 -0.204 1.004 0.863 -4.534 10.557
2.0987389579999984 0.107 -0.174 0.981 -3.435 -5.061 15.0
2.106069167000001 0.113 -0.188 0.973 0.962 -1.916 12.855
2.118294167000002 0.085 -0.141 0.97 -1.107 -3.084 12.565
2.1256050830000106 0.093 -0.118 0.971 -2.496 -4.069 11.489
2.137603625000011 0.101 -0.138 0.961 -2.382 -4.664 5.695
2.1451644580000107 0.134 -0.176 0.971 -0.45 -1.931 2.42
2.157160458000007 0.128 -0.193 0.978 -3.603 -1.649 3.58
2.169433583 0.121 -0.249 0.973 -2.71 -1.153 5.137
2.176704167000011 0.105 -0.25 0.973 -8.084 -1.542 16.763
2.188998500000011 0.058 -0.225 0.935 1.496 -0.359 12.695
2.19625266700001 0.046 -0.198 0.928 2.595 -3.893 8.489
2.20854137500001 0.063 -0.167 0.936 3.939 -5.924 5.008
2.2160611670000065 0.099 -0.146 0.929 3.58 -6.351 0.008
2.2283226670000005 0.138 -0.146 0.961 3.534 -4.527 -4.145
2.235562542000011 0.131 -0.138 0.953 1.389 -3.779 -5.855
2.2478473750000063 0.147 -0.176 0.956 1.992 -2.237 -6.809
2.255118708000012 0.142 -0.225 0.971 2.718 -0.748 -2.405
2.267369417000012 0.118 -0.209 0.964 0.122 -0.489 5.84
2.2749328750000046 0.107 -0.188 0.944 2.496 -0.313 8.847
2.2869171669999986 0.095 -0.163 0.955 -0.244 -2.0 12.137
2.298977917000002 0.098 -0.135 0.932 -3.221 -3.313 14.45
2.306575667000004 0.101 -0.135 0.954 -0.779 -1.687 9.252
2.318506625000012 0.08 -0.118 0.943 -3.473 -3.725 4.985
2.325804208000008 0.078 -0.073 0.921 -4.733 -6.206 -4.931
2.337896083000004 0.112 -0.108 0.936 -3.466 -6.176 -13.565
2.3451789580000053 0.107 -0.186 0.942 -4.443 -7.733 -16.023
2.3571641250000113 0.213 -0.409 1.021 4.977 -2.313 -12.626
2.369433458000003 0.19 -0.274 1.009 -5.137 1.664 13.84
2.376997208000006 0.128 -0.204 0.95 2.656 3.0 13.298
2.3889522500000027 0.143 -0.245 0.998 10.122 6.489 16.061
2.396506500000001 0.086 -0.114 0.947 -1.076 2.397 23.344
2.4085139170000076 0.073 -0.103 0.939 -1.313 -0.267 12.641
2.4158279580000084 0.098 -0.133 0.955 -6.542 -0.023 7.763
2.428084333000001 0.091 -0.16 0.959 -5.42 -0.145 -0.611
2.4354241250000115 0.078 -0.173 0.957 -5.779 -2.832 -2.374
2.4473817920000016 0.09 -0.189 0.967 -0.779 -3.557 -4.809
2.453277667000009 0.146 -0.244 0.971 1.702 -1.763 -4.618
2.4671771670000027 0.163 -0.268 1.016 1.198 0.55 6.313
2.4791960000000017 0.094 -0.176 0.956 -2.046 -0.885 13.443
2.4865263330000005 0.104 -0.168 0.963 -0.756 -0.779 12.244
2.4985309170000107 0.146 -0.172 0.979 -1.305 -0.076 10.031
2.5060571250000123 0.149 -0.146 0.965 -3.702 2.122 10.061
2.518322000000012 0.116 -0.167 0.955 -1.977 1.611 6.42
2.5253470829999998 0.109 -0.164 0.954 -0.198 0.29 6.069
2.537946167000001 0.088 -0.166 0.939 -1.275 -2.947 7.893
2.5453932080000072 0.11 -0.221 0.934 1.916 -2.183 3.634
2.5573876670000004 0.121 -0.215 0.97 -1.038 -1.412 8.13
2.5649548330000016 0.097 -0.2 0.947 1.817 -1.618 5.672
2.5773044580000004 0.076 -0.16 0.938 3.298 -3.534 2.519
2.589459292000001 0.116 -0.173 0.93 5.824 -4.389 -1.061
2.596724917000003 0.145 -0.163 0.945 4.031 -3.725 -1.595
2.609000167000005 0.137 -0.12 0.917 2.267 -3.504 -6.473
2.616299500000011 0.15 -0.14 0.935 0.366 -2.939 -8.229
2.6283365419999996 0.171 -0.141 0.937 -0.55 -0.718 -9.153
2.635800792000012 0.198 -0.226 0.97 0.649 2.244 -7.176
2.648071999999999 0.173 -0.208 0.972 -1.511 4.84 0.756
2.6556122500000043 0.13 -0.172 0.939 -0.038 5.084 3.069
2.667853917000002 0.109 -0.19 0.959 -0.603 4.115 5.847
2.6750982080000085 0.072 -0.144 0.929 -1.351 2.718 5.359
2.6872731250000044 0.058 -0.099 0.916 -4.985 -1.038 -2.115
2.6994303750000057 0.087 -0.125 0.933 -6.489 -1.771 -8.084
2.706775250000007 0.11 -0.166 0.94 -7.947 -1.122 -10.603
2.71875870800001 0.135 -0.209 0.962 -6.13 0.351 -10.939
2.7260337920000097 0.132 -0.213 0.967 -4.55 0.855 -7.542
2.7382892500000082 0.124 -0.24 0.97 -3.0 0.099 -4.45
2.745867708000006 0.135 -0.2 0.961 -3.321 0.092 1.718
2.758106000000012 0.146 -0.175 0.957 -4.542 2.588 8.252
2.765363208000011 0.141 -0.134 0.949 -8.053 5.427 17.359
2.7776365 0.147 -0.116 0.946 -9.527 6.473 17.878
2.7849199999999996 0.158 -0.139 0.953 -11.863 8.374 15.824
2.796952791999999 0.133 -0.105 0.954 -13.672 9.061 11.901
2.809218333000004 0.104 -0.117 0.946 -14.137 8.115 4.542
2.816489500000003 0.094 -0.178 0.947 -12.435 7.595 -1.359
2.828548583 0.096 -0.256 0.961 -9.687 7.916 -7.71
2.836103500000007 0.108 -0.347 0.981 -3.863 7.458 -6.489
2.848071500000003 0.057 -0.28 0.968 -1.412 4.42 -2.061
2.8555697920000114 0.054 -0.285 0.972 8.282 1.664 -7.954
2.867869375000012 0.096 -0.174 0.946 2.985 -2.878 -6.191
2.875122083000008 0.127 -0.147 0.956 1.71 -0.992 -10.321
2.887181208000001 0.161 -0.174 0.987 -2.298 2.221 -9.45
2.8994229170000096 0.138 -0.186 0.98 -3.275 5.221 -2.511
2.906947708000004 0.129 -0.169 0.969 -4.511 5.931 2.87
2.9191977500000093 0.118 -0.208 0.973 -2.099 7.107 4.664
2.9265089579999994 0.103 -0.223 0.979 -2.947 7.031 8.733
2.9387255420000002 0.073 -0.243 0.967 -0.557 6.206 9.481
2.946295500000005 0.07 -0.243 0.962 1.504 4.008 9.489
2.9585137080000123 0.119 -0.206 0.973 1.298 4.382 10.313
2.966074000000006 0.094 -0.143 0.951 -1.542 3.481 6.924
2.9783091250000098 0.079 -0.119 0.941 -3.71 1.168 -1.053
2.9855710420000037 0.09 -0.134 0.956 -5.649 0.527 -5.733
2.997878875000012 0.093 -0.17 0.961 -6.779 0.992 -6.733
3.005160625000002 0.073 -0.209 0.962 -6.061 1.458 -8.511
3.0174089580000043 0.097 -0.224 0.96 -3.557 1.901 -6.702
3.0294342500000084 0.086 -0.244 0.974 -0.634 1.985 -3.878
3.0370374170000076 0.088 -0.223 0.967 1.618 2.939 0.389
3.049239374999999 0.118 -0.223 0.976 0.611 5.13 11.382
3.056760875000009 0.082 -0.141 0.949 -4.244 4.855 18.275
3.068740708000007 0.07 -0.124 0.927 -4.977 4.198 14.26
3.0763253329999998 0.086 -0.118 0.938 -8.84 2.931 11.122
3.0885268749999994 0.096 -0.145 0.938 -8.214 3.107 4.725
3.0958222920000082 0.097 -0.163 0.952 -7.221 3.084 -1.344
3.1080826250000086 0.088 -0.209 0.958 -4.496 2.26 -6.275
3.1150316250000003 0.11 -0.276 0.963 0.412 2.672 -9.748
3.1279217499999987 0.118 -0.291 0.989 0.977 4.664 0.099
3.13536950000001 0.063 -0.239 0.964 1.58 4.458 7.183
3.147667458000001 0.053 -0.202 0.95 1.031 2.595 9.481
3.155157250000002 0.063 -0.157 0.922 -3.107 0.718 9.16
3.167405292000012 0.089 -0.171 0.942 -4.015 1.618 5.504
3.1733171670000075 0.094 -0.193 0.952 -5.008 2.542 2.244
3.1869122920000024 0.074 -0.246 0.944 -0.802 1.664 -3.809
3.199185208000003 0.061 -0.237 0.96 3.336 0.389 -4.282
3.206511125000006 0.077 -0.268 0.961 7.168 -0.092 -1.26
3.2189756670000094 0.102 -0.256 0.967 9.939 2.847 2.985
3.226293250000012 0.095 -0.215 0.96 7.962 4.718 12.832
3.238527958000006 0.067 -0.135 0.936 3.832 4.74 17.252
3.246069833000007 0.067 -0.124 0.938 -0.229 4.29 15.412
3.2580569170000047 0.051 -0.138 0.934 -4.588 3.504 14.183
3.2656195420000103 0.053 -0.183 0.945 -2.885 4.298 8.092
3.277846167000007 0.062 -0.201 0.954 -3.427 3.221 7.412
3.2853613330000115 0.064 -0.224 0.958 -0.954 2.397 1.809
3.2976976670000084 0.076 -0.251 0.963 2.84 1.107 -1.519
3.304916250000005 0.052 -0.246 0.957 4.305 -0.679 -1.107
3.317180250000007 0.029 -0.236 0.951 6.29 -3.015 -5.008
3.329184000000012 0.04 -0.198 0.943 5.595 -4.779 -6.405
3.336718083000008 0.058 -0.176 0.957 1.939 -5.725 -5.031
3.3488813330000085 0.093 -0.182 0.965 2.031 -3.977 -6.13
3.35607825000001 0.091 -0.111 0.965 -2.611 -3.863 3.611
3.3683175000000034 0.104 -0.24 0.998 4.221 -1.443 -4.275
3.3757836670000074 0.112 -0.2 0.976 1.412 -3.046 3.496
3.3880767500000104 0.117 -0.262 0.993 6.435 -0.206 -1.038
3.39526329200001 0.094 -0.182 0.965 3.084 -1.252 6.794
3.407622083000007 0.083 -0.174 0.958 5.733 -1.565 -2.565
3.414320083000007 0.064 -0.17 0.949 3.786 -3.656 -4.687
3.4268724580000054 0.08 -0.177 0.966 3.458 -3.511 -7.634
3.439497166999999 0.103 -0.159 0.962 1.053 -2.771 -6.58
3.446416708000001 0.112 -0.177 0.975 1.069 -1.183 -6.244
3.458930125000009 0.121 -0.2 0.975 2.237 -0.275 -6.099
3.4659229170000003 0.105 -0.25 0.994 3.992 0.939 -2.924
3.478439042000005 0.073 -0.224 0.955 5.267 -0.183 -1.748
3.4854629579999994 0.049 -0.207 0.956 7.298 -1.84 -1.336
3.497919292000006 0.046 -0.2 0.964 6.802 -2.779 2.206
3.505203250000008 0.06 -0.173 0.94 5.687 -2.573 -1.832
3.517454749999999 0.073 -0.148 0.95 2.687 -3.275 -0.626
3.524798583000006 0.091 -0.147 0.957 2.733 -2.305 -2.985
3.537051333000008 0.14 -0.189 0.98 3.321 -0.237 -2.603
3.542894583000006 0.109 -0.201 0.966 3.962 0.206 1.29
3.5570631670000097 0.095 -0.215 0.953 5.076 0.122 1.45
3.569458042000008 0.092 -0.169 0.956 4.397 -0.817 5.695
3.576720167000005 0.067 -0.139 0.945 3.71 -1.015 5.588
3.588965542000011 0.105 -0.124 0.942 2.046 -1.053 1.916
3.596534458000008 0.104 -0.134 0.951 0.137 0.023 2.038
3.6087539170000014 0.092 -0.152 0.955 -1.588 -0.168 0.137
3.6160368330000097 0.096 -0.176 0.95 0.328 -0.794 -2.504
3.6283325830000024 0.114 -0.196 0.981 1.26 -1.053 -4.328
3.635564708000004 0.11 -0.192 0.976 3.427 -0.954 -6.885
3.6478505420000005 0.106 -0.217 0.983 4.718 -0.588 -6.313
3.6551116250000035 0.087 -0.192 0.965 5.336 -0.924 -4.023
3.6674061249999994 0.08 -0.187 0.958 5.74 -1.405 -2.023
3.6732727500000095 0.102 -0.157 0.965 3.901 -1.481 -0.992
3.6869929580000047 0.12 -0.178 0.985 5.641 1.137 -2.771
3.6995274169999988 0.097 -0.186 0.97 3.427 1.16 1.038
3.7069537920000073 0.098 -0.187 0.977 4.809 2.634 3.145
3.71921887500001 0.059 -0.198 0.959 4.26 1.023 4.756
3.7267087500000002 0.044 -0.202 0.957 7.595 -0.069 4.649
3.7389719580000076 0.032 -0.173 0.927 5.397 -3.496 2.756
3.746294000000006 0.068 -0.164 0.94 5.733 -3.679 -0.977
3.758554458000006 0.103 -0.167 0.953 4.137 -3.412 -3.122
3.76581800000001 0.121 -0.136 0.964 3.008 -2.366 -2.809
3.778088208 0.124 -0.126 0.959 1.855 -2.061 -4.076
3.7853913750000032 0.135 -0.133 0.97 2.015 -1.252 -2.42
3.7975899170000105 0.13 -0.146 0.965 1.015 0.145 0.916
3.805097083000007 0.098 -0.158 0.966 1.473 1.969 4.053
3.8176052080000034 0.075 -0.133 0.95 1.107 2.313 6.58
3.8251443330000114 0.092 -0.178 0.961 2.985 3.244 3.107
3.837382292000001 0.079 -0.184 0.974 3.45 3.435 2.786
3.8448959170000023 0.033 -0.124 0.936 0.779 -0.588 3.466
3.8569334170000076 0.073 -0.161 0.974 4.0 -0.756 -3.153
3.8692045420000056 0.077 -0.173 0.971 1.87 -1.893 1.183
3.8767260830000083 0.092 -0.188 0.984 4.13 0.214 4.038
3.8892261250000075 0.104 -0.166 0.986 3.16 0.756 9.695
3.896504292000003 0.13 -0.15 0.962 5.237 2.672 16.542
3.908732042000011 0.099 -0.143 0.987 3.412 0.313 17.053
3.9162709579999984 0.101 -0.151 0.976 3.817 1.046 9.786
3.9285092500000047 0.1 -0.158 0.988 2.0 -0.244 5.962
3.936041375000002 0.097 -0.167 0.979 3.328 -0.45 0.351
3.9483254170000066 0.114 -0.195 1.007 4.534 -0.069 -1.74
3.955862875000008 0.104 -0.182 0.987 5.405 0.527 1.947
3.9681075830000054 0.072 -0.175 0.995 6.71 -1.84 6.618
3.9753279580000083 0.103 -0.172 0.986 6.344 -1.0 2.71
3.9878519170000004 0.122 -0.139 0.974 4.267 0.107 3.611
3.9954040000000077 0.133 -0.124 0.977 3.863 2.0 2.282
4.007596042000003 0.105 -0.127 0.984 2.389 2.557 0.595
