Time AX AY AZ GX GY GZ
0.02022879200001171 0.022 0.041 1.004 8.313 -1.595 -2.718
0.027600791999986996 0.029 0.017 1.014 3.405 -0.29 -0.565
0.03992279200002713 0.021 0.01 1.012 0.176 2.336 0.13
0.047397250000017266 0.005 0.032 0.983 -3.298 3.336 2.084
0.05970158299999184 -0.002 0.052 0.951 -5.145 2.344 2.092
0.0672823329999801 -0.002 0.058 0.973 -6.901 0.809 2.458
0.0795439999999985 0.005 0.083 0.976 -6.58 0.115 1.275
0.08696612500000356 0.015 0.095 0.968 -2.137 -0.634 -1.504
0.09936854200003609 0.029 0.072 0.993 1.099 -0.557 -3.214
0.1115029169999957 0.029 0.048 1.012 4.214 0.252 -4.053
0.11902437499998086 0.025 0.027 1.026 4.55 2.092 -2.458
0.13117954199998394 0.009 0.017 1.01 -1.664 4.45 0.168
0.13870424999998932 -0.012 0.028 0.968 -4.412 4.656 3.435
0.15095179200000075 -0.023 0.049 0.952 -0.985 2.725 3.74
0.15851454200003445 -0.002 0.075 0.929 0.725 0.107 2.427
0.1707914579999965 0.003 0.086 0.941 -0.679 -2.824 -1.0
0.17807662500001697 0.016 0.073 0.979 1.053 -2.634 -2.534
0.19026070799998251 0.021 0.069 0.99 3.687 -1.939 -2.679
0.19782745800000612 0.011 0.065 0.995 5.542 -0.794 -1.458
0.21028037500002483 0.007 0.044 1.007 5.931 0.603 0.191
0.2177740829999948 0.006 0.031 0.996 5.244 1.26 1.618
0.23003554199999598 -0.007 0.03 0.983 7.649 1.84 2.076
0.2377635830000031 0.001 0.028 0.983 7.275 0.985 5.084
0.2500574580000148 0.004 0.082 0.948 2.634 -0.145 4.863
0.2577358749999803 0.013 0.095 0.949 1.374 -0.641 2.863
0.26982500000002574 0.02 0.103 0.944 2.939 -2.603 -1.282
0.27732658299999 0.012 0.098 0.985 7.427 -2.847 -2.794
0.289644208000027 0.015 0.056 1.0 7.878 -2.229 -2.489
0.2968820419999929 0.008 0.041 0.99 6.794 -1.458 -1.328
0.30936504200002446 0.008 0.025 1.008 6.107 -0.168 0.504
0.3168669170000271 0.014 0.051 1.0 1.252 0.985 3.962
0.32915383300002077 0.016 0.062 1.009 -2.145 2.756 5.321
0.3352072079999857 0.017 0.077 0.977 -2.992 2.992 5.947
0.34928479199999174 0.021 0.103 0.944 -1.634 0.702 3.542
0.36119904200000974 0.029 0.121 0.95 -1.153 -1.053 -0.885
0.3687490830000115 0.035 0.094 0.982 3.725 -1.038 -3.252
0.3809904999999958 0.025 0.066 0.974 7.74 -0.939 -2.977
0.3885078330000056 0.005 0.055 0.965 8.107 -0.481 -2.053
0.400755375000017 0.004 0.057 0.962 5.634 -0.061 -0.58
0.40801958299999797 0.004 0.065 0.96 2.87 -0.107 -0.656
0.4205097920000185 0.01 0.067 0.961 1.649 0.42 0.977
0.4280244579999817 0.019 0.064 0.959 0.031 -0.122 2.626
0.44030270799999016 0.012 0.049 0.96 -0.573 0.519 4.435
0.4477660830000332 0.023 0.068 0.924 -0.634 -0.641 6.214
0.46002991699998574 0.024 0.083 0.951 -4.053 -1.344 4.252
0.4675888330000362 0.033 0.079 0.975 -6.916 -0.031 3.427
0.4798412079999821 0.017 0.088 0.965 -6.099 1.45 2.366
0.4873359169999958 -0.007 0.079 0.941 1.511 1.29 0.863
0.49939237500001354 -0.016 0.073 0.909 2.489 -1.176 0.099
0.5069278330000202 -0.013 0.071 0.914 -2.397 -2.908 -0.931
0.5190385420000325 0.001 0.071 0.922 -4.947 -2.992 -0.198
0.531501583000022 0.014 0.094 0.934 -6.145 -3.015 1.267
0.5388180830000238 0.015 0.081 0.949 -6.603 -2.084 1.641
0.5509566669999799 0.017 0.075 0.95 -6.992 -1.099 1.176
0.5582733749999989 0.007 0.084 0.927 -4.733 -1.664 0.924
0.5706564170000092 -0.0 0.076 0.935 0.16 -2.015 -0.221
0.577773083000011 0.0 0.059 0.944 2.504 -1.809 -0.092
0.5904668750000042 0.008 0.046 0.936 0.679 -1.626 0.954
0.597610292000013 0.014 0.055 0.94 -4.695 -1.748 1.664
0.6100473750000219 0.021 0.071 0.946 -6.672 -1.603 1.908
0.6176351249999925 0.029 0.084 0.931 -6.634 -2.374 0.947
0.6298841249999896 0.037 0.085 0.938 -5.962 -2.916 -0.603
0.6371038749999798 0.024 0.065 0.938 -3.916 -2.924 -1.641
0.6493992919999982 0.028 0.073 0.947 -3.756 -2.924 -0.649
0.6552765420000242 0.029 0.062 0.976 -3.267 -1.221 0.008
0.668943875000025 0.027 0.061 0.97 -7.313 -0.015 1.916
0.6814026669999862 0.02 0.065 0.97 -7.832 1.176 3.641
0.688953749999996 0.016 0.055 0.972 -4.122 1.458 4.023
0.701185291999991 0.02 0.057 0.96 -2.687 1.725 5.015
0.7087240829999928 0.023 0.07 0.93 -5.374 0.382 2.115
0.7209393329999898 0.028 0.03 0.949 -6.679 0.008 0.908
0.7284567500000207 0.039 0.034 0.948 -7.053 0.26 1.328
0.7409538329999918 0.035 0.053 0.935 -6.374 0.427 0.557
0.7482327499999997 0.024 0.076 0.932 -7.382 -0.542 -0.763
0.7605602919999797 0.002 0.055 0.938 -6.26 -1.237 -0.977
0.7678114999999934 -0.0 0.034 0.96 -4.305 -1.878 -0.809
0.7798206670000241 -0.01 0.01 0.972 -6.069 -2.221 0.878
0.7873820419999902 0.007 0.03 0.97 -8.603 -1.962 2.679
0.7996227080000153 0.032 0.059 0.948 -9.55 -2.542 2.748
0.8071439999999939 0.035 0.072 0.937 -8.481 -3.695 0.397
0.8191785829999958 0.047 0.085 0.957 -8.099 -4.267 -1.023
0.8313894579999896 0.032 0.086 0.954 -7.466 -4.496 -3.466
0.8388294169999995 0.022 0.071 0.987 -2.725 -3.992 -2.977
0.8509530420000146 0.022 0.048 0.983 -3.298 -3.382 -1.092
0.8584865000000264 0.021 0.029 1.002 -6.466 -1.611 0.565
0.8704801250000287 0.016 0.01 1.0 -10.611 -0.771 2.74
0.8779858330000252 0.031 0.011 1.024 -11.099 0.656 3.969
0.8902808750000304 0.034 0.031 0.998 -8.992 1.84 5.076
0.8978097920000323 0.043 0.058 0.96 -4.382 0.863 2.725
0.910068458000012 0.03 0.071 0.934 -3.382 -2.061 -1.26
0.9172926670000265 0.028 0.073 0.971 -5.992 -3.275 -3.565
0.9294326670000146 0.007 0.065 0.981 -3.313 -2.481 -2.924
0.9369268330000295 0.003 0.03 0.981 -1.145 -3.87 -1.389
0.9491424999999936 0.021 0.028 1.005 -2.229 -4.198 0.931
0.9614160419999962 0.048 0.026 1.027 -2.511 -2.084 0.481
0.9689052919999881 0.059 0.039 1.029 -2.672 0.481 1.511
0.9814090419999957 0.055 0.036 1.023 -0.947 2.664 2.618
0.9890063750000309 0.056 0.033 1.041 -1.229 3.817 3.267
1.001177417000008 0.041 0.05 1.008 -3.466 4.168 2.771
1.0087056250000046 0.042 0.067 0.965 -5.198 2.977 0.313
1.0210675420000257 0.035 0.057 0.991 -6.656 2.282 -2.069
1.0285423330000185 0.03 0.03 0.984 -5.58 1.267 -4.916
1.0407519170000228 0.026 0.011 0.969 -0.611 2.427 -4.031
1.0479803329999982 0.009 0.01 0.97 -2.511 3.069 -2.824
1.0603009170000064 -0.003 0.025 0.965 -3.885 3.092 -0.626
1.0677961669999831 0.003 0.019 0.976 -0.977 3.374 1.229
1.0802742500000022 0.003 0.009 1.011 3.626 4.466 4.901
1.0878142079999975 0.008 0.054 0.947 -0.718 3.214 4.794
1.100023125000007 0.002 0.066 0.93 3.672 1.397 1.092
1.1079151669999874 0.026 0.045 0.963 5.565 0.84 0.58
1.1201045420000355 0.026 0.027 0.984 3.229 4.977 1.855
1.1276128330000006 0.028 0.054 1.0 -3.26 2.916 1.351
1.140094750000003 0.013 0.021 0.968 -9.534 4.267 1.321
1.1473403749999989 0.0 0.037 0.951 -11.069 3.092 1.145
1.1596006670000065 -0.004 0.028 0.957 -3.87 2.588 1.344
1.167139082999995 -0.007 0.003 0.991 -0.779 1.679 3.008
1.179381458000023 -0.009 0.018 0.971 -1.412 1.947 3.885
1.1869260419999819 0.004 0.04 0.937 -4.756 -0.137 1.985
1.199223542000027 0.018 0.038 0.966 -9.695 -0.198 2.145
1.2111793750000288 -0.062 0.05 0.986 -16.29 1.137 -9.542
1.2187237919999916 0.016 0.019 0.923 -8.779 -3.191 0.542
1.2309657079999852 0.017 0.025 0.96 -4.481 -3.924 2.252
1.238257874999988 0.017 0.031 0.96 -2.542 -2.84 5.962
1.2504965830000287 0.011 -0.004 0.99 -5.344 -1.588 -2.13
1.2577488329999937 0.088 0.033 1.016 -3.832 -0.069 4.145
1.270277333000024 0.058 0.008 1.03 -5.931 3.015 4.595
1.2778141250000203 0.062 0.061 0.995 -7.13 6.931 4.931
1.2900557500000218 0.025 0.052 0.937 -12.267 5.351 1.847
1.2976064169999972 0.004 0.036 0.928 -7.443 4.672 0.168
1.3098179170000321 -0.002 0.051 0.907 -6.824 2.55 0.55
1.3170933330000025 -0.005 0.027 0.884 -5.221 0.298 -0.427
1.329405042000019 0.015 0.027 0.935 -9.328 -1.611 0.611
1.336551792000023 0.037 0.008 0.977 -12.336 0.038 1.084
1.3491831670000352 0.025 0.006 0.99 -15.221 2.695 2.641
1.361358583000026 0.007 0.009 0.99 -18.649 3.802 4.595
1.368705417000001 -0.003 0.016 0.969 -17.168 3.206 3.603
1.3807186669999965 -0.01 0.017 0.958 -11.328 1.641 -0.954
1.3880004170000007 0.007 0.033 0.972 -10.099 -0.145 -0.427
1.4004012920000264 0.006 -0.015 0.974 -7.786 0.0 0.565
1.4078275420000068 0.016 -0.032 1.004 -7.45 0.893 3.794
1.4200431250000065 0.018 -0.02 0.967 -3.069 2.702 3.893
1.4276046670000255 0.013 -0.029 0.951 6.076 3.336 -0.382
1.4398153330000127 0.034 -0.01 0.965 2.084 2.0 6.115
1.4473224580000306 0.028 -0.0 1.008 -0.924 1.885 6.031
1.4596163329999854 0.02 0.011 0.965 -5.504 -0.023 4.565
1.466854875000024 0.031 0.026 0.963 -7.504 -0.664 0.206
1.4791631250000137 0.021 0.011 0.937 -8.947 -2.45 -1.076
1.4911635419999811 0.026 -0.035 1.012 -8.038 -3.893 -1.481
1.4985232920000158 0.047 -0.035 1.047 -7.588 -1.168 1.061
1.511027624999997 0.051 -0.024 1.062 -9.977 3.145 4.618
1.5182012500000042 0.051 0.006 1.037 -14.786 6.611 5.954
1.5305176250000159 0.023 0.013 1.005 -13.763 8.412 6.389
1.5380402920000051 0.026 0.024 0.956 -13.702 7.458 1.374
1.5502952080000227 0.018 0.047 0.908 -15.29 1.863 -2.206
1.5576877920000243 0.038 0.017 1.003 -14.511 0.687 -5.137
1.5696063330000243 0.059 -0.009 1.017 -11.252 2.962 -3.191
1.5771530829999847 0.032 -0.031 1.017 -7.672 3.107 -0.557
1.5893852920000313 0.025 -0.023 1.045 -8.534 4.13 1.626
1.5953139580000197 0.025 -0.019 1.0 -9.939 5.634 1.023
1.6089264999999955 0.006 -0.036 1.014 -6.58 6.374 1.374
1.621416833000012 0.003 0.008 0.977 -8.939 5.794 2.008
1.6287144579999904 0.002 0.027 0.931 -12.198 3.656 -2.069
1.6407164579999858 0.0 -0.003 0.95 -12.939 1.275 -4.931
1.6480323330000033 -0.006 -0.032 0.994 -8.855 0.847 -5.13
1.66029924999998 -0.002 -0.054 1.011 -5.931 0.855 -2.855
1.6675929170000359 0.005 -0.054 1.016 -8.802 1.802 -0.634
1.679833125000016 0.001 -0.071 1.022 -8.344 2.901 0.153
1.687123917000008 -0.006 -0.073 1.014 -7.374 3.198 1.481
1.699359042000026 0.002 -0.038 1.0 -8.076 4.679 2.885
1.706873958000017 -0.016 -0.051 0.987 -8.023 3.534 2.565
1.718914208000001 -0.007 -0.015 0.942 -3.718 1.489 0.115
1.7309167500000058 -0.002 -0.005 0.959 -4.55 -0.878 -2.916
1.7382477080000172 -0.008 -0.05 1.011 -7.542 -1.0 -2.939
1.7502972920000275 -0.014 -0.052 0.994 -9.298 -0.481 -1.542
1.7576060000000098 -0.016 -0.049 1.005 -8.794 -0.87 -0.718
1.7696190000000342 -0.004 -0.054 0.999 -11.641 0.099 0.847
1.7769824169999993 -0.003 -0.056 1.015 -13.763 0.756 2.985
1.789204208000001 -0.007 -0.056 0.99 -9.16 1.511 3.702
1.8011735830000362 -0.006 -0.04 0.95 -4.656 -0.42 3.511
1.8087514580000175 0.01 -0.036 0.98 1.435 -2.107 0.053
1.8207249999999817 0.013 -0.037 0.969 -3.527 -4.313 -2.099
1.8280000419999851 0.009 -0.054 0.977 -0.023 -4.992 -2.229
1.840276082999992 0.009 -0.066 0.996 0.954 -5.099 0.389
1.8478511250000338 0.007 -0.083 0.99 2.908 -2.916 2.443
1.8601088749999803 0.009 -0.069 0.99 2.618 -0.947 6.122
1.867381000000023 0.01 -0.062 0.966 -1.962 -0.046 8.084
1.8796200830000203 -0.01 -0.058 0.98 0.42 1.595 9.191
1.8869522080000252 -0.021 -0.027 0.907 -8.534 -1.977 8.313
1.8989289170000347 -0.004 -0.029 0.952 -9.992 -3.282 4.725
1.9111682920000135 0.009 -0.034 0.976 -8.122 -3.557 3.626
1.9184495000000084 0.009 -0.047 0.995 -8.26 -2.962 3.809
1.9306293750000236 -0.017 -0.074 0.998 -5.794 -1.756 5.527
1.9376625419999982 -0.012 -0.091 0.96 0.313 -3.366 7.397
1.9500567499999875 -0.021 -0.098 0.991 3.092 -3.198 10.275
1.9573746670000105 -0.003 -0.053 0.97 -3.565 -2.466 11.076
1.9696344170000089 0.015 -0.032 0.949 -6.183 -3.901 9.344
1.9769298329999856 0.035 -0.024 0.99 -6.359 -4.443 7.473
1.9891635420000284 0.055 -0.017 1.016 -7.351 -3.405 5.802
2.0012629170000196 0.047 -0.047 1.031 -9.053 -2.916 4.802
2.008459500000015 0.025 -0.051 1.004 -5.427 -2.137 4.756
2.020849666999993 0.031 -0.061 1.031 -2.679 -1.466 4.427
2.02828391700001 0.036 -0.064 1.003 -0.847 -0.244 3.405
2.0404789579999942 0.031 -0.05 1.0 0.962 0.504 3.046
2.048022333000006 0.021 -0.056 0.98 -0.443 0.847 1.901
2.0603482079999935 0.026 -0.026 0.955 -3.893 0.275 1.313
2.067622125000014 0.009 -0.061 0.968 -5.214 0.916 1.817
2.0797235420000106 -0.001 -0.092 0.969 -6.573 1.718 3.756
2.087149624999995 -0.01 -0.105 0.956 -8.183 1.557 5.344
2.0993901250000135 -0.016 -0.091 0.951 -10.099 0.626 5.206
2.1114311670000347 -0.01 -0.072 0.933 -4.489 -0.687 5.046
2.1187196669999935 -0.012 -0.081 0.948 -1.87 -1.275 6.328
2.1307017500000143 -0.005 -0.069 0.935 -0.817 -1.344 6.802
2.1382595420000143 -0.002 -0.075 0.966 0.069 -1.374 7.74
2.1502720419999832 0.006 -0.066 0.95 -0.969 -1.695 8.863
2.1578471249999893 0.002 -0.048 0.933 -1.191 -2.885 7.374
2.169834167000033 0.02 -0.044 0.947 -5.786 -4.198 5.435
2.1771608330000163 0.029 -0.061 0.993 -11.489 -3.832 2.992
2.1895348749999926 0.031 -0.072 1.007 -13.099 -2.29 2.0
2.2014248330000328 0.017 -0.086 0.991 -11.382 -2.542 1.664
2.2087145419999956 0.013 -0.088 0.984 -12.221 -1.855 3.183
2.220985208000002 0.02 -0.076 0.964 -6.282 -0.244 3.573
2.228265125000007 0.013 -0.075 0.962 -3.855 -0.275 4.802
2.2405551250000144 0.015 -0.053 0.941 -6.878 -1.84 4.573
2.2475807079999868 0.023 -0.071 0.953 -8.458 -3.473 2.649
2.259881500000006 0.031 -0.092 0.989 -5.435 -4.489 2.008
2.2668577499999856 0.05 -0.094 1.001 1.176 -5.374 0.893
2.279353791999995 0.066 -0.073 1.007 0.664 -4.626 1.817
2.286616207999998 0.073 -0.078 1.042 0.099 -1.511 2.412
2.299174208000011 0.065 -0.077 1.037 -9.29 2.008 2.817
2.3047070000000076 0.044 -0.056 1.003 -13.733 4.916 2.443
2.3186474999999973 0.038 -0.04 0.958 -17.847 3.847 0.901
2.3308938330000046 0.028 -0.056 0.958 -14.191 2.695 -2.115
2.337920792000034 0.015 -0.061 0.941 -13.618 0.168 -2.542
2.350401125000019 0.003 -0.08 0.955 -8.275 -1.718 -2.122
2.357482333000007 0.021 -0.095 0.972 -2.611 -2.771 -1.847
2.3696951670000317 0.019 -0.098 0.978 -2.573 -2.053 0.023
2.3770739999999932 0.024 -0.124 0.986 -2.298 -2.061 1.115
2.3892474170000355 0.049 -0.102 1.014 -5.832 -0.565 0.947
2.3965443330000085 0.072 -0.07 1.013 -8.275 1.756 -0.901
2.408799208000005 0.052 -0.082 1.032 -11.893 3.076 -1.634
2.420974000000001 0.041 -0.082 1.015 -11.13 4.374 -2.168
2.4282645000000116 0.041 -0.056 0.966 -12.519 2.916 -3.237
2.4405055419999826 0.021 -0.09 0.973 -8.244 1.847 -3.382
2.4480910830000084 -0.007 -0.125 0.973 2.557 1.023 0.015
2.4600189999999884 -0.012 -0.102 0.948 0.695 -2.588 2.664
2.4676580830000034 0.0 -0.136 0.991 0.756 -2.969 2.802
2.479813292000017 0.017 -0.093 1.015 0.344 -0.863 4.282
2.4873483750000105 0.029 -0.078 0.988 -0.603 0.756 4.061
2.4995312080000076 0.013 -0.097 0.975 -6.618 2.221 4.206
2.50660429200002 0.01 -0.113 0.97 -12.992 1.29 4.244
2.519160083000031 -0.016 -0.142 0.983 -9.573 1.374 4.328
2.531157124999993 -0.016 -0.134 0.981 -5.733 0.672 7.13
2.53871833300002 0.0 -0.119 0.943 -6.008 -1.137 7.763
2.550722750000034 -0.003 -0.114 0.92 -7.328 -4.069 4.817
2.5581458749999797 0.017 -0.085 0.917 -7.0 -7.458 3.58
2.5703790830000344 0.045 -0.066 0.969 -4.588 -7.74 1.489
2.577616292000016 0.04 -0.1 0.998 -4.992 -5.672 0.748
2.5898349170000188 0.034 -0.114 0.992 -8.893 -2.076 1.344
2.5973857079999902 0.027 -0.134 0.982 -9.634 0.802 2.527
2.6095183329999827 0.01 -0.146 0.964 -9.702 1.565 5.573
2.616888582999991 0.004 -0.129 0.938 -5.42 1.176 6.58
2.629175958000019 0.029 -0.107 0.937 -3.924 -0.42 5.847
2.6414192500000127 0.042 -0.103 0.966 -7.954 -1.244 4.603
2.648698333000027 0.061 -0.087 0.948 -10.282 -1.244 2.779
2.660728167000002 0.058 -0.079 0.994 -7.679 -0.466 0.924
2.6682746669999915 0.052 -0.101 1.011 -4.351 1.656 -0.427
2.6804912919999992 0.049 -0.096 1.014 -4.405 5.534 0.656
2.687804041999982 0.035 -0.132 1.001 -8.427 8.809 3.214
2.700073833000033 0.01 -0.123 0.941 -12.931 8.725 4.008
2.707337083000027 0.015 -0.083 0.884 -15.031 4.153 0.191
2.7196242080000275 0.025 -0.095 0.947 -13.366 1.939 -2.015
2.7269156250000037 0.029 -0.135 0.978 -11.0 0.725 -3.603
2.738894333000019 0.03 -0.131 0.989 -7.466 1.718 -2.664
2.7511758329999907 0.019 -0.129 1.002 -8.893 3.557 -0.092
2.7584510000000364 0.023 -0.155 1.038 -13.901 6.557 2.298
2.770769458000018 0.008 -0.145 1.014 -17.802 9.985 4.282
2.7780570420000004 0.001 -0.118 0.924 -11.336 7.977 2.351
2.7902877500000045 -0.001 -0.124 0.943 -10.748 2.779 0.45
2.797577625000031 -0.008 -0.124 0.942 -6.42 0.427 -0.672
2.809582207999995 0.009 -0.141 0.978 -2.931 -0.672 -0.893
2.8170990830000164 0.006 -0.154 0.999 -5.84 0.496 1.809
2.8291701250000187 -0.007 -0.177 0.998 -6.771 0.916 1.0
2.8414067080000223 -0.004 -0.156 1.02 -4.252 2.29 -0.206
2.848660917000018 0.01 -0.151 0.983 -2.191 1.069 2.55
2.861039875000017 0.014 -0.154 1.003 -6.137 1.603 4.885
2.868633499999987 0.016 -0.138 0.973 -12.809 2.42 4.504
2.8806719579999935 0.017 -0.135 0.918 -12.969 1.107 3.687
2.8879837499999894 0.004 -0.152 0.94 -12.0 -1.214 2.107
2.900237083000036 0.004 -0.162 0.952 -8.534 -2.718 0.191
2.9074944170000094 0.013 -0.16 0.968 -7.176 -4.076 -0.198
2.919484582999985 0.022 -0.158 0.985 -6.542 -3.885 -1.168
2.9256233330000327 0.036 -0.124 1.002 -6.344 -1.115 -1.038
2.9392610830000194 0.038 -0.117 0.981 -5.252 1.023 -0.473
2.9513032500000236 0.028 -0.136 0.964 -7.618 1.527 0.466
2.9589694169999916 0.007 -0.161 0.946 -7.374 1.496 1.336
2.9709032920000027 0.001 -0.173 0.968 -4.176 -0.221 2.573
2.9782072500000254 0.001 -0.167 0.971 -8.45 -1.527 3.786
2.9903932080000004 0.02 -0.152 0.943 -12.275 -2.954 2.046
2.9976522080000336 0.038 -0.122 0.98 -10.191 -4.176 0.076
3.0097722919999796 0.062 -0.116 1.004 -10.29 -3.405 -2.13
3.0170598750000295 0.063 -0.127 1.009 -9.275 -1.679 -3.519
3.0291357080000125 0.052 -0.149 0.992 -6.214 -0.069 -3.092
3.0412849169999845 0.025 -0.148 0.985 -5.878 0.924 -2.122
3.0486154999999826 0.02 -0.169 0.973 -4.687 1.916 -1.55
3.060883208000007 0.01 -0.193 0.969 -7.901 1.481 -0.664
3.068154375000006 0.011 -0.172 0.972 -6.954 1.458 -1.214
3.0802483749999965 0.011 -0.16 0.98 -6.878 0.397 -1.756
3.087600708000025 0.026 -0.167 0.987 -6.786 0.137 -2.389
3.0999397919999865 0.028 -0.167 0.994 -7.374 1.718 -2.466
3.1075001250000014 0.022 -0.181 0.983 -7.656 3.267 0.893
3.1196383330000117 0.011 -0.161 0.924 -10.618 2.328 1.679
3.1267700420000324 0.007 -0.16 0.922 -10.511 0.824 0.969
3.1392910000000143 0.007 -0.156 0.94 -2.824 0.237 0.0
3.1513058749999914 0.012 -0.164 0.957 -4.557 -0.74 -1.153
3.158622207999997 0.002 -0.184 0.979 -5.038 -0.321 -1.374
3.170642208000004 0.008 -0.172 0.93 -7.267 -1.55 -1.458
3.1778852080000206 0.022 -0.179 0.943 -6.527 -3.977 -1.527
3.1901982080000266 0.028 -0.185 0.976 -8.779 -3.74 -1.206
3.1973087499999906 0.041 -0.188 0.99 -7.481 -2.313 -1.557
3.209554207999986 0.021 -0.212 0.993 -7.71 -0.718 -0.107
3.2153682919999937 0.026 -0.203 1.005 -11.313 2.565 1.527
3.2290558750000287 0.021 -0.184 0.977 -12.611 3.069 1.74
3.241352667000001 0.025 -0.18 0.969 -15.26 2.695 2.137
3.2486333329999866 0.031 -0.173 0.96 -11.244 2.183 0.198
3.260669875000019 0.023 -0.163 0.971 -10.237 1.42 -1.122
3.268201417 0.031 -0.194 0.953 -7.45 0.725 -2.511
3.2803157920000103 0.007 -0.228 0.963 -7.0 0.565 -1.092
3.287666333000004 0.022 -0.202 0.995 -6.924 0.847 0.145
3.299995082999999 0.021 -0.206 0.957 -6.412 0.557 -0.87
3.307218833000036 0.016 -0.228 0.995 -8.267 0.924 -0.321
3.3194431670000313 0.007 -0.211 0.972 -5.718 0.275 1.282
3.331401667000023 0.019 -0.208 0.966 -1.282 -1.466 -1.748
3.3384756670000115 0.025 -0.189 0.98 -7.107 -0.809 -2.939
3.35103704200003 0.045 -0.196 0.992 -4.13 -0.275 -1.214
3.3582609580000167 0.037 -0.196 0.99 -0.176 -0.947 0.489
3.370559291999996 0.043 -0.202 0.994 -3.008 -0.969 1.229
3.3777955830000224 0.043 -0.213 1.005 -7.809 1.328 1.466
3.390065166999989 0.043 -0.2 1.0 -11.664 3.305 0.137
3.397364458000027 0.038 -0.187 0.984 -13.237 4.389 -1.809
3.409368707999988 0.039 -0.19 0.96 -12.313 4.756 -5.45
3.4168737080000255 0.02 -0.203 0.955 -9.931 4.107 -6.779
3.428960791999998 -0.004 -0.223 0.97 -3.687 3.702 -4.313
3.4411945830000263 -0.002 -0.239 0.939 3.718 2.42 -2.099
3.448454542000036 0.006 -0.22 0.942 3.351 1.649 -0.496
3.4609472920000144 0.008 -0.201 0.954 6.374 2.679 0.359
3.4682114999999953 0.01 -0.205 0.956 5.641 3.176 -0.718
3.4804849170000125 0.017 -0.198 0.922 0.84 0.725 -2.176
3.4877791250000314 0.015 -0.206 0.947 -2.45 -0.321 -3.641
3.4999491250000005 0.018 -0.215 0.983 -5.969 -0.153 -4.603
3.5074220829999945 0.02 -0.229 0.994 -6.771 0.939 -5.046
3.519635625000035 0.012 -0.239 0.97 -5.023 1.336 -3.847
3.526895292000006 0.011 -0.217 0.925 -6.137 -0.397 -2.679
3.539171417000034 0.003 -0.234 1.003 3.183 0.595 0.107
3.55115437500001 0.012 -0.187 0.931 -3.534 -0.351 -0.916
3.55858041700003 0.003 -0.197 0.917 -6.137 -3.069 -1.641
3.5708095830000275 0.011 -0.216 0.929 -6.405 -5.107 -1.198
3.5780633749999993 0.009 -0.21 0.928 0.954 -7.412 -1.183
3.590306333000001 0.023 -0.214 0.972 2.084 -7.725 -0.443
3.597591625000007 0.036 -0.221 1.002 0.908 -5.267 0.038
3.609807750000016 0.043 -0.237 1.009 -0.023 -1.84 1.809
3.6173805000000243 0.03 -0.231 0.986 -5.527 0.015 3.595
3.6296443329999875 0.042 -0.216 0.95 -7.183 0.702 3.786
3.636897916999999 0.04 -0.213 0.992 -8.031 1.244 2.473
3.649152416999982 0.046 -0.186 0.954 -4.107 0.489 2.359
3.661399875000029 0.03 -0.202 0.966 -1.046 -0.481 1.389
3.6687145000000214 0.03 -0.191 0.914 -2.832 -2.954 -0.786
3.6807095000000345 0.024 -0.204 0.94 -1.298 -4.359 -1.145
3.688048832999982 0.023 -0.199 0.955 -2.763 -4.748 -0.511
3.7002971670000306 0.036 -0.204 0.973 -2.71 -4.29 0.229
3.7075845420000064 0.038 -0.205 0.977 -2.656 -3.626 -1.229
3.7196329999999875 0.03 -0.221 0.996 -6.305 -2.069 -1.038
3.7269416670000055 0.031 -0.217 0.959 -8.412 -2.405 -0.588
3.739186208000035 0.042 -0.205 0.976 -5.649 -2.626 -0.962
3.751172208000014 0.047 -0.194 0.995 -6.084 -2.191 -1.779
3.758464124999989 0.045 -0.199 0.972 -6.397 -1.198 -2.366
3.7704999580000162 0.033 -0.209 0.952 -7.809 -2.061 -3.313
3.7778536250000343 0.031 -0.213 0.941 -8.153 -3.023 -4.771
3.790045207999981 0.027 -0.231 0.972 -4.733 -3.084 -5.084
3.797342208000032 0.03 -0.252 1.03 -7.107 -1.366 -3.107
3.809412208000026 0.029 -0.238 0.971 -9.305 0.534 -1.16
3.8169212079999966 0.029 -0.249 0.963 -5.046 0.321 -0.985
3.8289175830000204 0.035 -0.23 0.954 -3.511 -1.321 -0.687
3.840938250000022 0.035 -0.223 0.936 -0.069 -2.565 -1.229
3.848236292000024 0.044 -0.17 0.965 -0.183 -3.557 -1.527
3.8605072080000014 0.039 -0.213 0.989 -0.756 -2.756 -3.992
3.8677862499999947 0.038 -0.215 0.967 -6.122 -1.878 -4.718
3.8798214999999914 0.037 -0.215 0.967 -8.282 -0.954 -4.656
3.8871584579999876 0.03 -0.24 0.989 -11.038 0.557 -4.58
3.8993889580000314 0.02 -0.251 0.957 -6.542 0.504 -4.115
3.9113810000000058 0.01 -0.263 0.956 3.061 -1.084 -1.565
3.9189245830000345 0.01 -0.254 0.959 6.229 -2.336 0.863
3.9311695420000206 0.038 -0.21 0.941 3.901 -2.893 -0.427
3.9382345829999963 0.04 -0.191 0.955 -2.0 -3.824 -2.824
3.950540750000016 0.036 -0.216 0.955 -5.0 -4.13 -4.45
3.9577944580000235 0.034 -0.233 0.964 -5.076 -3.489 -4.031
3.9698053750000213 0.027 -0.241 0.969 -9.511 -3.58 -3.756
3.9771039579999865 0.026 -0.246 0.964 -7.947 -3.038 -2.611
3.9894532079999863 0.02 -0.242 0.933 -7.053 -3.511 -1.664
4.001433708000036 0.034 -0.25 0.957 -5.229 -3.71 -0.649
