Time AX AY AZ GX GY GZ
0.014512209000031362 -0.04 0.093 0.873 -2.305 -3.13 -4.511
0.026732750000007854 -0.025 0.056 0.94 -1.649 -6.443 -5.962
0.03383424999998397 0.027 0.058 0.989 -0.237 -6.26 -5.679
0.04616762500000959 0.05 0.07 0.998 -3.031 -4.672 -4.634
0.0535517499999969 0.062 0.047 1.02 -3.008 -0.855 -2.656
0.06594487500001378 0.051 0.044 1.023 -4.847 2.305 0.817
0.07349675000000389 0.021 0.073 0.967 -8.84 3.824 0.038
0.08570137499998509 0.018 0.09 0.952 -9.855 2.412 -1.71
0.09299979200000053 0.013 0.079 0.967 -8.313 0.756 -2.962
0.1052490000000148 0.01 0.079 0.97 -3.84 0.107 -5.153
0.11276533400001654 0.018 0.055 0.964 -3.031 -1.053 -5.71
0.12480404199999384 0.01 0.035 0.986 -1.511 -1.122 -5.832
0.13703729200000225 0.028 0.023 1.016 -4.061 -0.435 -2.58
0.144764250000037 0.022 0.03 1.012 -5.962 1.679 -1.397
0.15690987499999665 0.006 0.035 0.997 -4.519 2.076 -0.969
0.164020708999999 0.008 0.014 1.008 -0.855 1.313 -0.481
0.176748334000024 0.004 0.052 0.972 -2.908 1.137 1.634
0.1839142919999972 -0.002 0.066 0.973 -2.458 0.053 -0.198
0.19610683400003381 -0.001 0.057 0.965 -2.405 -1.0 -0.038
0.20361254200003032 0.01 0.058 0.975 -2.405 -1.107 -1.038
0.21560199999998986 0.017 0.054 0.992 -0.878 -0.344 -1.26
0.22316025000003492 0.023 0.055 0.992 0.588 -0.115 0.015
0.2355262500000208 0.027 0.036 1.002 2.244 -0.55 0.0
0.24310341699998617 0.035 0.043 0.998 2.473 0.076 0.656
0.2555538340000112 0.043 0.063 1.004 2.023 0.733 1.244
0.2630757499999845 0.046 0.065 0.998 0.29 0.748 -0.153
0.2754033340000319 0.036 0.055 1.007 1.756 2.55 -1.008
0.2828634589999979 0.031 0.079 0.97 -1.107 1.573 -1.42
0.29520629199998893 0.021 0.051 0.986 -2.305 1.748 -1.679
0.30098029200001974 0.019 0.053 0.967 -3.794 1.74 -0.695
0.3145689589999847 0.015 0.031 0.977 -1.321 2.137 -0.985
0.3270798750000381 0.025 0.039 0.971 -1.344 1.84 1.748
0.33460883399999375 0.02 0.03 0.979 -0.458 2.244 0.992
0.34685979200003203 0.02 0.044 0.953 -1.496 2.58 1.221
0.35433004200001506 0.016 0.063 0.939 -1.45 2.511 0.412
0.3666787920000161 0.018 0.071 0.928 -1.198 1.504 -1.84
0.37411366700001736 0.007 0.071 0.927 0.435 1.473 -2.573
0.38635083399998393 0.003 0.049 0.916 3.389 0.069 -3.168
0.3938967089999892 0.003 0.031 0.932 4.084 0.206 -0.908
0.40637991700003795 0.017 0.037 0.93 0.153 -0.076 1.145
0.413936834000026 0.026 0.036 0.928 -0.405 1.573 1.412
0.4261449169999878 0.029 0.043 0.943 -1.588 2.901 2.107
0.4336450000000127 0.022 0.072 0.902 -5.985 3.168 1.794
0.4459092090000354 0.004 0.081 0.89 -8.687 1.794 0.153
0.4534437089999983 -0.001 0.072 0.891 -5.405 0.794 -1.16
0.46545845899998994 -0.004 0.061 0.916 -5.542 -0.038 -0.702
0.472996500000022 0.006 0.059 0.916 -3.511 0.664 -1.588
0.4852546250000387 0.006 0.037 0.924 -0.16 0.634 -2.069
0.4924977499999841 0.009 0.021 0.924 -0.779 0.405 -0.229
0.5050569590000009 0.035 0.021 0.955 -2.954 2.45 0.985
0.5109217090000016 0.035 0.039 0.942 -2.115 4.45 -0.008
0.5245716250000214 0.031 0.062 0.923 -4.542 3.496 -1.382
0.5368089170000303 0.002 0.034 0.906 -8.847 3.679 -0.977
0.5441268750000177 -0.015 0.037 0.885 -10.763 2.901 -0.733
0.5563429169999949 -0.02 0.038 0.905 -9.908 0.702 1.786
0.5639009170000122 -0.003 0.037 0.912 -10.679 0.702 3.847
0.5760698750000302 0.006 0.058 0.929 -8.237 1.344 3.725
0.5833820420000393 0.015 0.06 0.915 -6.931 1.496 3.878
0.5959132500000237 0.021 0.051 0.944 -4.008 2.412 1.74
0.6034353750000037 0.029 0.069 0.945 -3.718 2.595 -0.023
0.6156813339999871 0.018 0.066 0.942 -6.847 1.962 -0.947
0.6231775420000076 0.019 0.046 0.941 -8.794 2.0 -1.26
0.6354835420000313 0.015 0.016 0.966 -8.45 2.748 1.206
0.6427926670000375 0.031 0.014 0.964 -12.779 4.328 6.137
0.6552502920000052 0.028 0.037 0.953 -17.977 6.733 7.397
0.6625060420000182 0.005 0.016 0.948 -12.939 7.015 7.061
0.675022958999989 0.012 0.049 0.926 -6.87 5.947 4.344
0.680893875000038 0.009 0.057 0.925 -4.71 4.45 -0.321
0.6945501669999885 0.006 0.046 0.931 -6.107 3.031 -1.832
0.7068365000000085 0.001 0.023 0.966 -10.405 3.069 -2.115
0.7141445000000317 -0.013 0.034 0.94 -15.351 2.672 -1.481
0.7261190000000397 -0.019 0.021 0.955 -16.519 1.336 -1.328
0.7337302089999866 -0.012 0.02 0.969 -19.641 0.962 1.672
0.7457658339999966 -0.031 0.021 0.937 -18.443 1.122 1.863
0.7530039170000009 -0.013 0.016 0.95 -14.321 -0.962 1.832
0.7652697920000264 0.025 0.032 0.945 -14.542 -2.282 0.977
0.7721177500000067 0.051 0.043 0.986 -20.214 -0.359 0.344
0.7847732920000112 0.04 0.038 1.001 -21.145 2.84 -0.45
0.7970942090000221 0.025 0.005 0.993 -18.008 3.908 -1.008
0.8043195000000196 0.02 0.001 0.987 -18.954 4.267 0.008
0.8163734590000331 -0.0 -0.011 0.998 -17.382 4.45 -2.183
0.8236315839999975 0.007 -0.003 1.002 -12.763 4.962 -2.298
0.8360082089999992 0.004 -0.001 0.978 -12.863 2.763 -1.58
0.843256125000039 0.008 -0.021 0.987 -12.183 2.282 -2.878
0.8552408340000284 0.012 -0.028 1.007 -16.267 3.504 -0.076
0.8625308750000045 -0.003 -0.031 1.004 -17.756 4.931 1.328
0.8745664170000396 -0.019 -0.036 0.976 -17.924 4.84 1.626
0.8868345000000204 -0.02 -0.05 0.989 -15.878 3.901 1.252
0.894164834000037 -0.047 -0.047 0.977 -11.198 3.023 0.779
0.9061517499999923 -0.047 -0.016 0.951 -8.748 -0.832 -1.626
0.9131977920000054 -0.037 -0.005 0.957 -11.87 -4.229 -1.756
0.9252347089999944 -0.064 -0.036 0.926 -9.656 -7.885 -3.382
0.9311561670000401 -0.053 -0.055 0.962 -6.237 -12.641 -5.489
0.9443278340000347 -0.031 -0.069 1.018 -1.313 -14.359 -4.603
0.9563506670000379 -0.016 -0.078 1.063 2.351 -12.985 1.924
0.96394650000002 0.034 -0.054 1.064 -3.687 -8.634 6.969
0.9759306249999895 0.034 -0.055 1.045 -6.374 -5.557 12.924
0.9832126250000215 0.036 -0.018 1.001 -10.634 -3.954 9.664
0.9952702500000328 0.051 -0.01 1.008 -16.427 -3.229 6.076
1.0025339169999938 0.012 -0.053 0.997 -12.229 -3.099 -1.542
1.0146213340000259 0.02 -0.045 0.987 -7.832 -4.389 -0.847
1.0268131249999897 0.01 -0.066 1.01 -8.557 -3.748 0.313
1.034078500000021 -0.006 -0.083 0.998 -10.0 -2.58 2.168
1.04616974999999 -0.013 -0.073 0.98 -6.16 -2.794 2.466
1.0534522920000313 -0.002 -0.073 0.982 -4.153 -4.527 2.947
1.065459541999985 -0.014 -0.04 0.968 -8.015 -6.634 1.74
1.0727360839999847 -0.005 -0.047 0.962 -10.382 -8.252 -1.206
1.084785084000032 0.008 -0.059 1.009 -13.26 -7.885 0.779
1.0967990419999865 0.006 -0.049 0.994 -16.695 -5.924 2.931
1.104120249999994 -0.008 -0.075 0.985 -16.847 -6.076 4.42
1.1161289590000365 -0.004 -0.089 0.978 -16.046 -8.443 6.084
1.1234369590000028 0.004 -0.089 1.004 -14.168 -9.053 7.397
1.1354500840000128 0.023 -0.069 0.997 -10.802 -9.962 5.42
1.1428088339999931 0.057 -0.051 1.037 -10.107 -9.321 4.305
1.15503779200003 0.055 -0.02 1.001 -8.107 -8.061 -0.244
1.167118209000023 0.051 -0.038 1.01 -7.305 -8.221 -4.641
1.1744182500000306 0.051 -0.073 1.035 -11.42 -7.71 -3.687
1.1863782500000184 0.029 -0.077 1.012 -12.099 -6.443 -2.794
1.1934497500000134 0.025 -0.093 1.006 -11.145 -6.687 -0.71
1.2057293340000115 0.022 -0.123 1.009 -10.748 -6.382 1.664
1.2129873750000115 0.06 -0.102 1.035 -11.45 -2.71 5.206
1.2250132500000177 0.069 -0.069 0.994 -11.74 -0.725 4.282
1.2370657499999993 0.069 -0.065 0.995 -12.687 -1.481 1.969
1.244342749999987 0.059 -0.072 1.014 -11.405 -0.916 0.748
1.2566829589999884 0.062 -0.07 1.015 -8.74 -0.221 -0.809
1.2637801250000393 0.065 -0.062 1.001 -7.504 -0.435 -1.107
1.2758180840000364 0.064 -0.076 1.012 -6.351 -0.008 -2.137
1.283016583999995 0.064 -0.11 1.037 -6.847 1.649 -1.84
1.29537833400002 0.073 -0.111 1.055 -9.008 4.603 -1.237
1.3027513339999928 0.051 -0.108 1.012 -7.107 6.397 -1.244
1.315030792000016 0.051 -0.105 1.007 -5.282 6.809 -0.015
1.3208614170000033 0.059 -0.067 0.993 -11.328 7.916 1.13
1.3346007499999928 0.049 -0.064 1.006 -11.565 8.893 1.641
1.3468451250000157 0.025 -0.085 0.988 -8.069 7.649 1.985
1.3543367089999947 0.029 -0.083 0.978 -6.847 4.695 1.0
1.3664363750000348 0.026 -0.089 1.005 -6.13 4.55 -1.45
1.3739372919999937 0.03 -0.108 0.999 -4.664 3.382 -2.588
1.3859061250000195 0.036 -0.116 1.036 -5.817 4.481 -0.023
1.393420333999984 0.037 -0.094 0.982 -3.908 5.214 0.16
1.4057010839999862 0.03 -0.093 0.996 -3.496 4.198 0.214
1.4132259589999876 0.032 -0.08 0.963 -3.489 3.359 0.389
1.4252177090000373 0.019 -0.087 0.968 -0.885 1.351 -0.504
1.4327622499999961 0.016 -0.097 0.954 1.832 -0.824 -1.053
1.4447737500000244 0.011 -0.09 0.973 1.58 -2.366 -0.656
1.4570403750000196 0.008 -0.081 0.968 1.947 -3.221 -1.008
1.464611375000004 0.024 -0.083 1.007 1.74 -4.267 0.977
1.4766819590000182 0.048 -0.088 1.013 -1.031 -2.443 -1.008
1.483890792000011 0.039 -0.109 1.002 -1.458 -1.26 -1.656
1.4958870000000388 0.05 -0.125 1.006 -1.031 -0.58 -1.023
1.5034107500000005 0.052 -0.133 1.016 -1.473 0.053 0.435
1.5157028340000238 0.034 -0.121 0.99 -2.221 0.534 2.855
1.5230545420000112 0.026 -0.081 0.959 -1.26 0.771 3.611
1.5350965420000193 0.02 -0.08 0.958 -0.382 -0.382 3.779
1.542428125000015 0.028 -0.071 0.97 -4.832 -0.031 4.397
1.5548718340000391 0.022 -0.096 0.979 -7.985 0.557 4.321
1.5670524170000135 0.019 -0.1 0.991 -10.076 1.069 4.26
1.5744220839999912 0.024 -0.108 0.991 -6.443 1.412 3.053
1.5869128340000316 0.028 -0.116 0.981 -6.511 1.115 3.191
1.5943411250000281 0.024 -0.127 0.991 -6.656 1.176 3.237
1.6066015420000213 0.018 -0.12 0.97 0.771 0.985 4.664
1.614119917000039 0.011 -0.093 0.947 2.351 -3.382 3.71
1.6263973750000105 0.03 -0.102 0.99 2.733 -3.786 2.443
1.6336498750000032 0.035 -0.106 0.99 4.527 -3.588 0.641
1.645909209000024 0.033 -0.086 0.96 3.412 -3.603 -0.534
1.653411750000032 0.043 -0.122 1.01 1.389 -0.496 1.374
1.6656825000000026 0.044 -0.114 1.009 -5.313 3.496 5.031
1.6729269589999944 0.017 -0.102 0.953 -5.992 3.786 6.794
1.6852360419999854 0.015 -0.099 0.971 -7.771 1.214 6.725
1.692746709000005 0.028 -0.098 0.985 -7.565 0.351 5.366
1.7050333340000066 0.038 -0.103 0.983 -5.832 -0.137 3.435
1.7170212920000267 0.034 -0.107 0.964 -7.45 -1.237 1.573
1.7245449590000135 0.03 -0.104 0.957 -9.092 -1.405 0.695
1.736637834000021 0.039 -0.12 0.99 -4.389 -0.214 0.672
1.743905959000017 0.041 -0.121 1.001 -1.137 0.038 1.45
1.7563685000000078 0.038 -0.108 0.989 -1.252 0.733 1.641
1.763660542000025 0.05 -0.106 0.993 -2.328 3.008 1.725
1.7761424999999917 0.035 -0.095 0.981 -5.13 3.511 1.489
1.7834130420000065 0.027 -0.097 0.962 -7.16 3.458 0.641
1.795711625000024 0.028 -0.109 0.968 -7.214 3.527 -0.351
1.8032420420000221 0.025 -0.11 0.981 -7.328 2.427 0.779
1.815562624999984 0.028 -0.117 0.97 -2.656 2.573 2.359
1.8227119169999924 0.016 -0.112 0.982 -0.038 1.382 2.466
1.8352532090000295 0.024 -0.102 0.963 2.443 1.427 0.779
1.842758291999985 0.024 -0.113 0.969 1.809 1.565 0.023
1.8550495420000175 0.013 -0.083 0.965 1.618 1.389 -1.366
1.8609064590000344 0.011 -0.103 0.968 2.695 0.038 -1.878
1.8745845839999902 0.01 -0.121 0.981 0.977 -0.924 -1.069
1.886858000000018 0.025 -0.118 1.002 2.573 -0.275 -1.008
1.8941086250000012 0.047 -0.123 1.018 -1.015 0.924 0.641
1.906342875000007 0.039 -0.137 1.029 -6.008 2.931 2.969
1.913878417000035 0.035 -0.126 0.991 -8.282 4.084 4.229
1.926162125000019 0.026 -0.119 0.969 -5.939 2.901 3.496
1.9336605839999947 0.034 -0.109 0.987 -3.901 1.458 2.176
1.9459356670000147 0.041 -0.095 0.984 -4.443 1.023 2.153
1.9531822090000333 0.041 -0.098 0.995 -6.092 1.702 0.435
1.9654448750000029 0.028 -0.131 1.017 -2.16 3.122 0.26
1.9729522499999916 0.01 -0.138 0.976 -1.412 2.466 2.008
1.9852160000000367 0.005 -0.141 0.981 -2.427 2.328 2.069
1.9927355840000018 0.022 -0.131 0.987 -4.374 2.947 2.718
2.005002499999989 0.038 -0.122 1.001 -3.046 3.153 2.313
2.010922292000032 0.041 -0.119 0.999 -3.481 3.16 2.847
2.0245502500000043 0.024 -0.094 0.952 -0.435 3.336 0.137
2.036822000000029 0.025 -0.081 0.949 0.718 0.107 -2.313
2.0443367500000136 0.025 -0.105 0.971 1.031 -0.061 -3.679
2.0565878340000268 0.035 -0.096 0.974 3.0 0.794 -4.473
2.063861916999997 0.036 -0.106 0.99 2.573 2.733 -3.069
2.0761432500000296 0.037 -0.123 0.994 -2.809 4.626 -0.588
2.0836621249999894 0.003 -0.146 0.991 -5.87 5.435 0.076
2.095702667000012 -0.0 -0.13 0.95 -1.618 4.603 -0.328
2.102949709000029 -0.002 -0.126 0.96 -1.168 1.763 -0.603
2.115222416999984 0.002 -0.133 0.963 -1.374 1.878 -1.176
2.1224861670000337 0.012 -0.124 0.965 -1.29 0.763 -0.985
2.134822917000008 0.019 -0.139 0.998 -0.924 0.725 -0.863
2.1467920420000155 0.02 -0.134 0.999 -2.267 1.756 -0.511
2.154349542000034 0.025 -0.132 0.98 -2.237 3.519 0.26
2.166678750000017 0.006 -0.125 0.956 -3.679 3.511 1.389
2.1742320420000283 0.016 -0.113 0.932 -4.069 2.298 0.107
2.186130459000026 0.014 -0.111 0.95 -3.435 0.672 -1.321
2.1936450000000036 0.011 -0.113 0.954 -6.221 0.244 -1.023
2.205671417000019 0.003 -0.137 0.979 -7.779 -0.969 -0.969
2.2129317499999956 0.012 -0.144 0.993 -9.336 -0.336 0.351
2.225317249999989 0.013 -0.148 0.994 -10.344 0.656 2.359
2.2328762920000145 0.001 -0.151 0.994 -8.489 1.824 3.618
2.244782541999996 0.006 -0.133 0.955 -2.573 -0.076 1.901
2.2570298340000363 0.006 -0.115 0.945 -1.206 -3.412 0.527
2.264291749999984 0.043 -0.124 1.009 1.389 -3.733 -0.916
2.2767318340000315 0.048 -0.12 0.991 0.107 -2.618 -2.145
2.2838908749999973 0.04 -0.137 1.029 -1.374 -0.069 -1.649
2.29622658400001 0.027 -0.136 0.988 -6.786 1.893 -0.878
2.3035037500000044 0.017 -0.133 0.997 -11.237 3.267 -0.794
2.315603417000034 0.015 -0.142 0.989 -11.328 3.489 -0.038
2.3227770000000305 0.016 -0.139 0.96 -5.489 2.076 -1.252
2.335283250000032 0.032 -0.13 0.982 1.084 2.45 0.733
2.3427315000000135 0.032 -0.113 0.963 4.29 1.809 0.55
2.3550332500000195 0.036 -0.111 0.993 3.168 3.122 0.435
2.3625810000000342 0.031 -0.116 0.984 -2.832 5.038 1.145
2.3748107499999946 0.021 -0.12 0.987 -4.412 6.481 1.496
2.3868070419999867 0.007 -0.118 0.927 -6.901 5.092 -0.672
2.3943554169999857 0.003 -0.144 0.958 -5.374 4.069 -0.58
2.406488209000031 -0.004 -0.152 0.98 -7.664 3.718 2.313
2.4139723339999932 0.001 -0.152 0.97 -5.176 4.061 3.183
2.426164125000014 0.01 -0.143 0.987 -3.435 3.672 2.908
2.4336712500000317 0.011 -0.137 0.968 -0.718 3.252 1.183
2.4459511670000325 0.004 -0.12 0.965 1.924 2.443 -1.489
2.453178125000022 0.019 -0.126 0.963 4.702 1.397 -4.214
2.4654828339999995 0.039 -0.114 1.013 2.771 2.542 -2.527
2.4731061250000153 0.032 -0.117 0.989 7.863 4.71 -5.321
2.485355959000003 0.023 -0.156 1.031 11.916 5.695 -2.366
2.4926280000000247 0.008 -0.154 0.996 10.985 7.092 -0.649
2.5048452089999955 0.006 -0.133 0.992 10.313 8.229 -1.084
2.5170645000000036 0.014 -0.103 0.996 3.366 7.511 -1.58
2.5243265839999935 0.017 -0.085 0.953 -3.588 6.374 -5.603
2.5366022919999978 0.011 -0.125 1.017 -5.374 6.763 -6.672
2.5439172499999927 0.0 -0.139 0.987 -5.71 7.198 -6.496
2.5559839590000024 -0.005 -0.149 1.011 -5.527 7.038 -4.588
2.5632085839999945 -0.029 -0.149 0.995 -2.863 7.298 -1.702
2.575382542 -0.025 -0.167 0.983 6.588 6.466 -2.588
2.582478708999986 -0.014 -0.133 0.987 6.687 6.0 -2.595
2.595093334000012 -0.018 -0.111 0.967 1.427 4.939 -0.962
2.607046292000007 -0.013 -0.1 0.968 -0.42 5.893 -2.527
2.6143245000000093 -0.008 -0.107 0.995 -3.473 6.374 -1.527
2.6266910420000045 -0.011 -0.129 1.003 -3.58 7.412 -1.038
2.633932375000029 -0.033 -0.162 0.993 -3.214 6.595 -0.969
2.6461746250000147 -0.049 -0.162 0.992 1.023 5.725 0.107
2.6535007500000347 -0.036 -0.154 0.986 11.084 5.954 -0.679
2.6654739589999963 -0.031 -0.118 0.96 13.779 2.664 -0.466
2.672777999999994 -0.024 -0.094 0.925 12.519 -0.282 -3.176
2.684781625000028 -0.009 -0.106 0.998 12.473 -0.466 -4.336
2.6968466250000347 0.007 -0.125 1.016 12.099 -0.382 -4.145
2.7041317499999877 0.001 -0.138 1.043 10.397 2.725 -1.824
2.716687583999999 0.017 -0.122 1.048 4.252 7.702 2.069
2.7238838339999916 -0.002 -0.111 0.991 0.351 9.374 2.214
2.7360876669999925 -0.002 -0.093 0.979 2.328 7.573 1.634
2.7434014170000296 0.008 -0.076 0.961 0.298 4.74 0.221
2.7559673339999904 0.01 -0.065 0.958 -2.443 5.023 -1.725
2.7631079999999884 0.009 -0.093 0.986 -2.374 5.977 -2.504
2.7755340840000144 -0.0 -0.1 0.98 -1.099 6.824 -1.763
2.7828277920000346 -0.034 -0.126 0.958 -0.718 6.023 -0.847
2.795214208999994 -0.043 -0.142 0.989 0.733 5.206 0.504
2.8011066249999885 -0.029 -0.135 1.001 3.565 4.725 1.931
2.8145876250000015 -0.039 -0.121 0.981 3.084 4.649 3.443
2.826825834000033 -0.036 -0.107 0.938 1.443 3.206 0.565
2.8343781250000006 -0.019 -0.104 0.991 -1.824 4.298 0.092
2.846444542000029 -0.016 -0.095 0.94 0.863 4.244 -4.588
2.8539369169999986 -0.033 -0.086 0.938 3.496 2.58 -6.504
2.86599245900004 -0.036 -0.11 0.981 2.809 2.084 -4.977
2.873458416999995 -0.053 -0.119 0.963 0.855 2.031 -4.748
2.885477208999987 -0.059 -0.136 0.947 0.824 0.137 -1.939
2.892718666999997 -0.055 -0.144 0.995 -3.809 -0.603 0.336
2.904788917000019 -0.051 -0.097 0.931 -7.481 -1.664 -1.29
2.9168393340000307 -0.02 -0.098 0.993 -8.198 -0.885 -0.435
2.9243387920000146 0.005 -0.083 0.972 -14.038 1.397 1.489
2.9363764999999944 -0.037 -0.102 0.978 -10.015 1.649 1.374
2.943651999999986 -0.047 -0.126 0.953 -4.573 0.351 0.618
2.955927041999985 -0.041 -0.138 0.998 2.122 -0.939 0.351
2.9631902920000357 -0.032 -0.148 1.015 3.588 -0.672 0.458
2.9755115000000387 -0.025 -0.13 1.001 -0.008 -1.137 2.176
2.9827683340000135 -0.02 -0.128 0.989 -3.435 -1.695 3.061
2.994895250000013 -0.026 -0.107 0.956 -8.893 -3.0 4.031
3.00679629199999 -0.017 -0.116 0.961 -5.664 -4.817 1.351
3.014096250000023 -0.006 -0.114 0.991 -1.321 -3.863 1.229
3.0263635840000234 0.0 -0.118 0.999 -1.13 -3.16 0.916
3.0336456250000197 -0.013 -0.119 0.968 -0.511 -1.489 0.053
3.0459127500000136 -0.005 -0.153 1.011 3.206 -0.489 0.954
3.0532163340000125 -0.004 -0.109 1.002 -1.931 3.267 3.695
3.0654898750000257 -0.005 -0.077 0.954 -3.267 4.145 0.87
3.0727295000000368 -0.019 -0.098 0.951 -4.366 3.061 -1.939
3.084759292000001 -0.021 -0.094 0.945 -5.16 1.153 -3.427
3.096803542000032 -0.03 -0.091 0.931 -4.802 -2.038 -4.473
3.104097459000002 -0.01 -0.102 0.959 -2.397 -3.527 -4.542
3.1161185000000273 0.003 -0.116 0.992 0.656 -3.221 -4.214
3.1234875840000313 0.004 -0.098 0.981 -1.015 -1.939 -2.847
3.1356988340000385 0.003 -0.105 0.99 -3.481 -1.374 -1.214
3.1430057919999967 -0.003 -0.109 0.976 -0.878 0.824 -1.534
3.1550044169999865 -0.008 -0.092 0.945 2.962 -0.008 -1.824
3.167075584000031 -0.021 -0.113 0.963 3.275 -0.595 -2.069
3.174433416999989 -0.013 -0.087 0.945 -0.267 -0.252 -2.511
3.186596124999994 -0.012 -0.11 0.98 0.061 0.687 -2.374
3.1938673340000037 -0.036 -0.129 0.969 1.336 1.481 -1.55
3.2061797920000004 -0.033 -0.133 0.98 4.924 1.672 -1.435
3.2133644170000366 -0.035 -0.176 1.039 4.55 1.969 1.87
3.2258310420000385 -0.045 -0.131 0.982 3.985 4.618 3.397
3.2331990840000344 -0.033 -0.093 0.925 3.947 1.519 0.435
3.245488834000014 0.001 -0.082 0.95 -1.863 0.183 -1.634
3.2525917090000007 -0.008 -0.091 0.951 -3.366 -0.267 -3.954
3.2645431669999994 -0.019 -0.093 0.95 -3.573 -0.565 -4.649
3.276679917000024 -0.022 -0.119 0.981 -3.45 -0.466 -3.824
3.283841250000023 -0.042 -0.138 0.991 -1.847 0.267 -2.588
3.29618291700001 -0.04 -0.137 1.004 0.885 0.847 -0.985
3.3036678750000306 -0.027 -0.134 1.011 2.824 1.435 0.359
3.3156882920000044 -0.026 -0.089 0.966 -0.389 -0.298 -0.855
3.3227251250000336 -0.005 -0.108 0.982 -1.305 -1.687 -1.626
3.3348130420000075 -0.002 -0.112 1.007 -2.298 -1.305 -2.435
3.3470491250000123 0.012 -0.102 1.0 0.916 0.145 -2.405
3.354599458999985 -0.004 -0.102 0.998 4.71 0.389 -2.519
3.3666611250000074 -0.01 -0.119 0.997 4.786 0.74 -2.344
3.3741787499999987 -0.025 -0.139 1.002 0.298 1.511 -0.809
3.3861561250000136 -0.03 -0.13 0.976 -4.58 1.824 0.45
3.393683167000006 -0.03 -0.125 0.971 -4.794 2.183 1.198
3.4056795840000404 -0.037 -0.109 0.947 -1.42 1.29 0.611
3.4131936250000194 -0.018 -0.109 0.974 0.695 0.794 -0.267
3.425265749999994 -0.014 -0.11 0.97 -3.069 -0.527 -1.359
3.4312067920000118 -0.015 -0.112 0.975 -1.45 -0.29 -3.168
3.4445494999999937 -0.019 -0.102 0.972 3.313 -1.191 -5.13
3.4566515420000314 -0.017 -0.108 0.993 9.168 -1.267 -5.695
3.4638371670000083 -0.013 -0.117 1.004 8.183 0.656 -3.779
3.4761192089999895 -0.008 -0.109 1.002 5.229 3.977 -1.954
3.4837101670000266 -0.015 -0.127 1.019 2.573 5.947 0.359
3.495702999999992 -0.049 -0.108 0.96 -0.702 4.878 1.076
3.502969291999989 -0.06 -0.105 0.923 -3.435 -0.756 -1.618
3.5150052500000015 -0.041 -0.122 1.004 -3.618 -0.771 -1.656
3.527060542000015 -0.027 -0.107 0.992 -7.092 -1.969 -0.595
3.5343551249999905 -0.024 -0.104 0.992 -8.809 -2.313 0.0
3.5463434590000134 -0.031 -0.123 0.993 -8.588 -2.702 -1.107
3.553644083999984 -0.031 -0.12 0.979 -2.092 -4.076 -1.42
3.5656675420000283 -0.028 -0.116 0.992 7.206 -5.092 -1.061
3.573020292000024 -0.03 -0.107 0.991 7.71 -5.214 -1.015
3.5848530000000096 -0.032 -0.127 0.996 10.214 -5.595 -1.198
3.5969514590000244 -0.017 -0.114 0.985 3.542 -4.786 -0.336
3.604560666999987 -0.026 -0.108 0.98 0.626 -2.893 0.046
3.6165489589999993 -0.03 -0.114 0.979 1.496 -2.55 0.481
3.6241460840000173 -0.032 -0.14 0.988 2.397 -2.511 0.817
3.6361163750000287 -0.026 -0.119 0.967 0.901 -0.931 4.046
3.643695541999989 -0.023 -0.122 0.962 3.008 -1.969 3.702
3.6556666250000376 -0.027 -0.094 0.941 5.023 -2.328 3.855
3.663209333999987 -0.033 -0.093 0.926 5.725 -5.931 1.374
3.6752230420000274 -0.026 -0.089 0.96 2.267 -7.519 -0.817
3.6825033750000102 -0.02 -0.106 0.961 0.885 -9.237 -0.992
3.694545584000025 -0.003 -0.105 1.003 -0.344 -9.313 -0.198
3.7065667090000147 -0.005 -0.106 0.993 -2.061 -9.573 2.198
3.71411658400001 -0.019 -0.097 0.96 0.466 -7.992 2.0
3.7261012499999993 -0.021 -0.108 0.957 9.634 -9.794 1.427
3.733457625000028 -0.001 -0.114 1.01 15.603 -8.565 1.405
3.7457787499999995 0.015 -0.096 0.97 11.206 -7.931 0.786
3.7529677090000177 0.039 -0.075 1.007 2.382 -4.115 -1.366
3.7651964590000375 0.044 -0.071 1.029 -5.29 -2.069 0.519
3.77204416699999 0.052 -0.049 1.003 -4.374 -0.168 -0.305
3.784797334000018 0.032 -0.076 1.018 0.603 -0.542 -0.374
3.7970700000000193 0.03 -0.095 1.04 1.992 0.656 -1.107
3.804331750000017 0.013 -0.071 0.981 0.557 0.321 -2.191
3.81676604200004 0.015 -0.093 1.049 6.191 0.298 -3.435
3.8241969590000053 0.031 -0.089 1.029 6.511 3.191 -2.908
3.836431375000018 0.026 -0.06 0.991 3.321 3.473 -2.595
3.843710041999998 0.012 -0.082 0.974 -0.985 2.313 -2.221
3.8559553339999866 0.012 -0.076 0.99 -6.191 1.076 -1.023
3.8632052500000214 0.004 -0.085 0.993 -5.511 -0.29 -1.42
3.8752480420000097 0.015 -0.084 0.977 -4.191 -0.519 -2.573
3.8824838749999913 0.012 -0.1 0.999 -2.137 -1.008 -3.389
3.894792999999993 0.001 -0.093 0.969 -0.962 -1.641 -3.015
3.9068325000000073 0.004 -0.1 0.986 -0.618 -2.374 -2.534
3.9140925419999917 0.011 -0.116 1.015 -2.794 -1.084 -1.702
3.9261228750000328 -0.008 -0.135 1.006 -2.618 -0.588 -1.023
3.9334014170000273 -0.018 -0.133 0.984 0.137 1.015 -0.878
3.9457530420000353 -0.01 -0.122 0.991 3.198 0.809 -0.908
3.953255709000018 0.008 -0.105 0.991 1.977 3.229 -0.481
3.9652255419999847 0.003 -0.064 0.935 -3.275 2.763 -1.29
3.972777167000004 0.014 -0.085 0.983 -4.344 0.595 -3.679
3.984777584000028 0.016 -0.096 0.99 -7.473 0.87 -4.069
3.9970650000000205 0.006 -0.1 0.991 -5.733 1.718 -3.031
