Time AX AY AZ GX GY GZ
0.013440166000009413 0.016 -0.177 0.987 -2.916 1.855 -0.366
0.025521165999975892 0.013 -0.174 0.995 -1.916 2.191 -0.328
0.03294899999991685 0.002 -0.15 0.97 -2.58 2.26 0.481
0.04520454099997551 0.009 -0.142 0.971 -1.786 1.519 0.229
0.05246995799996057 0.006 -0.139 0.959 -2.389 0.626 -0.855
0.06466341599991665 0.006 -0.128 0.946 -3.061 -0.359 -1.466
0.07200833299998521 -0.004 -0.138 0.958 -2.0 -0.618 -2.031
0.0840237080000179 0.015 -0.151 0.958 -1.863 -0.573 -1.191
0.09128112499990948 0.022 -0.155 0.982 -1.611 -0.168 -1.382
0.10356270799991307 0.021 -0.14 0.97 -0.298 0.252 -1.55
0.11585362499999974 0.014 -0.149 0.992 -1.275 0.748 0.084
0.12303933299995151 0.015 -0.151 0.975 -3.214 0.985 1.763
0.1353380409999545 -0.001 -0.143 0.977 -3.809 0.718 1.069
0.14289812499998789 0.014 -0.137 0.96 -2.985 0.076 0.321
0.15488020800000868 0.012 -0.137 0.962 -2.061 -0.023 -1.366
0.1621572079999396 0.014 -0.156 0.962 -0.443 -0.603 -2.061
0.17419037499996648 0.014 -0.163 0.979 -1.13 -0.405 -2.053
0.18170516599991515 0.02 -0.163 0.987 -0.84 0.176 -0.573
0.19405020800002148 0.021 -0.161 0.966 -0.466 0.908 0.901
0.20148195799993118 0.014 -0.17 0.985 0.298 1.634 0.954
0.21377241599998342 0.009 -0.159 0.967 -0.58 1.466 1.351
0.21964900000000398 0.011 -0.146 0.955 0.84 0.565 -0.122
0.23335387499992066 0.006 -0.139 0.956 0.534 -0.16 -1.779
0.2453451659999928 0.006 -0.135 0.956 -1.443 -0.298 -1.321
0.25259045799998603 0.013 -0.144 0.963 -1.885 -0.191 -1.031
0.264864915999965 0.019 -0.149 0.963 -1.588 0.344 -0.656
0.2721706659999654 0.014 -0.167 0.968 0.725 0.809 -1.023
0.28471204099992065 0.012 -0.167 0.972 0.122 0.588 -1.489
0.2919755829999531 0.015 -0.157 0.958 0.504 0.008 -0.763
0.30402074999994966 0.023 -0.146 0.969 -1.389 0.107 0.435
0.3117227909999656 0.022 -0.141 0.965 -2.389 0.313 -0.153
0.32373083300001326 0.021 -0.14 0.976 -1.595 0.679 -0.947
0.3298082499999282 0.011 -0.153 0.962 -1.702 -0.031 -1.542
0.3433058749999418 0.002 -0.156 0.956 -1.305 -0.458 -1.641
0.3553246249999802 0.012 -0.167 0.981 1.305 -0.687 -2.893
0.3625982909999266 0.017 -0.165 0.985 -0.13 -0.649 -1.137
0.37486695799998415 0.026 -0.155 0.977 -1.42 -0.626 -0.015
0.38211291599998276 0.023 -0.152 0.965 2.008 0.115 -0.527
0.39439983299996584 0.031 -0.141 0.977 -0.58 0.405 0.168
0.401922165999963 0.024 -0.131 0.963 -1.802 0.122 -0.313
0.41399554099996294 0.02 -0.139 0.953 -0.557 -0.137 -2.13
0.4212354999999661 0.025 -0.139 0.969 -3.053 0.008 -2.221
0.43356504099995163 0.018 -0.138 0.965 -2.809 0.374 -2.466
0.4457923329999858 0.017 -0.149 0.959 -3.115 1.031 -1.748
0.4531468750000158 0.006 -0.171 0.958 -2.443 1.145 -1.878
0.46505662499998834 -0.007 -0.163 0.97 -2.122 0.908 -1.656
0.4724130829999922 -0.015 -0.156 0.968 -1.031 1.038 -1.817
0.4846994999999197 -0.018 -0.144 0.953 -0.641 0.718 -2.275
0.4916882909999458 -0.028 -0.15 0.967 -0.069 -0.397 -2.595
0.5039974999999686 -0.019 -0.157 0.959 1.344 -1.656 -3.084
0.511245874999986 -0.008 -0.135 0.975 0.779 -2.626 -2.366
0.5233039579999286 0.001 -0.135 0.968 0.168 -2.756 -1.817
0.5355620409999347 0.001 -0.155 0.974 2.649 -2.878 -2.756
0.5429004159999522 -0.007 -0.153 0.984 0.145 -2.954 -1.466
0.5551142079999636 0.001 -0.143 0.971 0.405 -1.855 -0.977
0.5624192499999481 -0.009 -0.158 0.988 0.191 -2.176 -0.16
0.574439540999947 -0.013 -0.159 0.988 -0.397 -2.427 -0.282
0.5817179160000023 -0.009 -0.158 0.989 2.031 -2.672 -0.496
0.5937650409999833 -0.013 -0.177 0.994 3.672 -2.718 -0.107
0.5996067909999283 -0.005 -0.177 1.001 3.443 -2.008 2.031
0.6132984160000206 -0.007 -0.162 0.995 3.649 -1.244 2.908
0.6255616249999321 -0.003 -0.14 1.0 2.618 -0.496 3.664
0.6328701659999751 -0.011 -0.125 0.983 2.748 -0.252 1.992
0.6451324999999315 -0.02 -0.123 0.962 1.702 -1.191 0.137
0.6521942910000007 -0.017 -0.122 0.971 -2.168 -2.45 -0.435
0.6642086250000148 -0.022 -0.117 0.975 -3.084 -2.595 -2.115
0.6714799579999635 -0.022 -0.148 0.984 -4.076 -1.397 -2.092
0.6835350829999243 -0.022 -0.17 0.999 -5.389 -0.458 -2.076
0.6955317499999865 -0.028 -0.169 0.987 -3.336 -0.183 0.099
0.7028839999999263 -0.025 -0.156 0.974 -2.756 -0.466 2.084
0.7150918749999846 -0.018 -0.147 0.98 -0.687 0.748 3.13
0.7224156249999396 -0.013 -0.138 0.982 -1.031 1.282 3.443
0.7346639159999313 -0.019 -0.118 0.966 -1.679 2.137 1.901
0.7419474160000163 -0.004 -0.115 0.974 -4.191 2.695 1.679
0.7542025409999269 -0.022 -0.12 0.967 -5.679 3.008 -0.42
0.7615508330000011 -0.005 -0.124 0.955 -6.237 3.26 -1.573
0.7735226659999626 -0.017 -0.146 0.981 -4.977 3.718 -0.84
0.7857943749999095 -0.031 -0.153 0.981 -4.008 4.13 0.023
0.7930587500000001 -0.039 -0.157 0.969 -3.206 4.076 1.824
0.8053443329999936 -0.039 -0.161 0.969 -4.763 3.931 4.298
0.8126464160000069 -0.036 -0.154 0.948 -5.405 2.969 5.221
0.8249367909999137 -0.035 -0.153 0.954 -3.519 2.26 4.176
0.8321622909999178 -0.023 -0.156 0.964 -2.885 1.16 5.115
0.8444239159999825 -0.023 -0.164 0.976 -1.718 1.443 5.626
0.851797999999917 -0.01 -0.148 0.979 -1.962 2.145 6.908
0.8638482079999221 0.005 -0.135 0.968 -4.42 2.824 6.954
0.8713225829999374 -0.015 -0.144 0.971 -1.55 3.107 5.038
0.8835426659999257 -0.011 -0.139 0.97 0.237 3.092 3.504
0.895781665999948 -0.015 -0.144 0.978 -1.679 3.046 2.863
0.9030306659999496 -0.013 -0.152 0.97 -3.107 3.725 4.626
0.9152093330000071 -0.017 -0.136 0.951 -5.229 3.092 4.206
0.9225742499999114 -0.023 -0.166 0.947 -0.649 2.176 3.191
0.9351605409999593 -0.037 -0.188 0.959 2.695 1.641 3.809
0.9422414580000122 -0.026 -0.184 0.965 2.45 0.298 5.42
0.9546799999999394 -0.009 -0.171 0.968 0.901 -0.702 6.191
0.9616517079999767 0.01 -0.166 0.976 0.519 -0.802 6.267
0.9741009159999976 0.013 -0.167 0.989 -0.466 -0.534 6.466
0.9812302909999744 0.012 -0.154 0.964 -2.282 -0.336 5.198
0.9938458749999199 -0.005 -0.159 0.956 -1.595 0.412 5.435
0.9993126250000159 0.0 -0.143 0.933 -5.878 -0.557 5.534
1.0131163749999814 0.002 -0.141 0.954 -6.588 -1.282 5.473
1.0255348329999379 0.006 -0.133 0.944 -5.466 -1.771 6.328
1.0325879999999188 0.01 -0.136 0.951 -5.679 -1.115 7.107
1.045216165999932 0.014 -0.127 0.954 -5.168 -0.221 6.802
1.0521508329999278 0.001 -0.145 0.953 -4.305 0.298 6.076
1.0647002499999871 0.003 -0.164 0.966 -3.626 0.244 5.115
1.0719629579999719 -0.01 -0.163 0.949 -1.16 -0.527 3.954
1.0842244159999836 -0.015 -0.172 0.953 0.405 -1.71 4.115
1.091475915999922 -0.01 -0.176 0.952 -1.947 -2.916 6.389
1.1032524999999396 -0.006 -0.178 0.96 -3.504 -3.74 7.763
1.115852540999981 0.006 -0.171 0.963 -3.282 -3.618 8.832
1.1232289999999239 0.016 -0.146 0.964 -3.863 -2.626 7.405
1.1352437079999618 0.018 -0.124 0.958 -6.267 -1.626 4.702
1.1427089159999468 0.023 -0.124 0.963 -7.198 -0.336 2.611
1.154964040999971 0.008 -0.144 0.955 -8.504 -0.679 1.863
1.1621671249999963 -0.007 -0.159 0.939 -6.176 -1.267 3.71
1.1742277910000212 -0.025 -0.18 0.958 -2.771 -2.58 6.718
1.181545415999949 -0.021 -0.166 0.948 -2.664 -3.534 7.969
1.1937897499999508 -0.009 -0.149 0.945 -1.557 -4.626 6.679
1.2057678749999923 0.003 -0.177 0.971 -1.305 -4.542 6.008
1.213304624999978 0.01 -0.176 0.96 -1.527 -5.023 4.931
1.2253898330000084 0.008 -0.18 0.969 -0.244 -4.55 4.214
1.2331014579999646 0.01 -0.189 0.978 -0.214 -4.832 4.298
1.2451680409999426 0.005 -0.187 0.978 2.573 -4.458 4.527
1.2524007910000137 0.005 -0.181 0.959 2.794 -4.611 7.382
1.2646809579999854 0.0 -0.185 0.956 2.855 -5.412 9.649
1.271987500000023 0.01 -0.161 0.963 -0.13 -5.412 12.061
1.2843013329999167 0.023 -0.137 0.952 -2.534 -5.611 11.84
1.2915263329999789 0.041 -0.131 0.962 -2.695 -5.244 8.847
1.30393325 0.03 -0.132 0.969 -2.313 -4.366 6.588
1.3157988749999276 0.021 -0.135 0.946 -4.603 -4.931 5.565
1.3233106249999764 0.007 -0.154 0.956 -2.382 -5.824 4.031
1.3356317499999477 0.011 -0.171 0.968 1.412 -5.885 4.748
1.3426871249999976 0.007 -0.177 0.965 2.855 -5.779 5.191
1.3550932079999711 0.013 -0.171 0.967 4.298 -5.649 5.176
1.3626753329999701 0.026 -0.177 0.973 3.779 -5.496 6.55
1.3749030000000175 0.02 -0.15 0.966 1.198 -5.695 7.534
1.3822444999999561 0.03 -0.146 0.95 0.779 -5.847 7.733
1.3947229159999779 0.032 -0.153 0.987 1.573 -5.038 6.763
1.402001999999925 0.043 -0.146 0.976 0.565 -2.824 6.534
1.4142203750000135 0.042 -0.145 0.986 -0.008 -1.046 6.183
1.4215201659999366 0.033 -0.15 0.982 -3.695 -1.191 6.13
1.4339232080000102 0.025 -0.165 0.972 -1.626 -0.45 5.183
1.4395798749999358 0.007 -0.161 0.957 -4.015 -1.16 6.359
1.453586249999944 0.011 -0.159 0.941 -4.374 -1.557 7.763
1.4656557499999963 0.01 -0.189 0.966 -0.382 -2.237 8.679
1.4729452499999525 0.006 -0.187 0.975 1.305 -2.786 8.695
1.4853041249999706 0.01 -0.173 0.958 5.374 -3.756 8.817
1.4926900409999462 0.023 -0.185 0.967 5.649 -5.061 9.267
1.5049128749999454 0.052 -0.174 0.963 4.42 -5.893 9.733
1.512436125000022 0.073 -0.141 0.961 3.565 -5.603 9.748
1.5247138329999643 0.095 -0.136 0.982 0.656 -4.244 9.427
1.5319397499999923 0.106 -0.129 1.005 -2.542 -1.107 9.977
1.5442700410000043 0.095 -0.132 0.983 -5.443 1.947 10.008
1.55151987499994 0.083 -0.14 0.989 -6.42 4.985 10.053
1.5638207079999802 0.062 -0.131 0.973 -7.504 6.137 9.817
1.571296165999911 0.042 -0.156 0.967 -5.321 6.466 7.229
1.5835959999999432 0.039 -0.149 0.952 -3.885 5.389 6.344
1.5957774579999295 0.039 -0.162 0.964 -1.466 4.618 5.634
1.6030925829999205 0.038 -0.157 0.963 -4.13 4.359 6.58
1.6153212909999866 0.047 -0.177 0.976 -6.267 4.557 8.015
1.6228963329999715 0.023 -0.179 0.973 -6.305 5.649 8.824
1.635085457999935 0.032 -0.173 0.971 -7.267 5.282 8.389
1.6426354159999619 0.03 -0.183 0.982 -6.008 5.641 8.298
1.654936915999997 0.033 -0.175 0.988 -6.794 5.725 7.282
1.66216370799998 0.035 -0.161 0.98 -7.443 6.489 6.924
1.6744387079999115 0.019 -0.176 0.98 -4.191 7.099 6.061
1.6819627080000146 0.01 -0.189 0.968 -0.031 6.817 6.771
1.6942337499999667 -0.001 -0.187 0.949 -0.168 5.618 6.282
1.701511165999932 0.005 -0.176 0.958 -0.664 4.176 6.305
1.7137474579999434 0.016 -0.171 0.964 -3.641 2.527 6.321
1.7212717080000175 0.025 -0.172 0.96 -3.893 2.252 7.115
1.7335521659999813 0.013 -0.167 0.966 -3.198 3.008 6.534
1.7457912909999322 0.016 -0.173 0.968 -4.092 3.397 6.969
1.753334165999945 0.014 -0.187 0.963 -6.794 3.198 8.443
1.7655527499999835 0.013 -0.169 0.986 -0.901 2.183 6.351
1.773111915999948 0.01 -0.19 0.955 0.656 2.748 6.298
1.785365249999927 0.029 -0.182 0.971 -0.802 1.893 8.275
1.792626749999954 0.033 -0.18 0.972 -1.328 2.122 8.74
1.8048586659999728 0.021 -0.166 0.963 -3.763 1.206 9.443
1.8124362500000188 0.012 -0.162 0.944 -3.977 1.038 8.695
1.824652040999922 0.015 -0.162 0.956 -4.969 0.382 7.748
1.831932707999954 0.013 -0.157 0.945 -5.145 -0.534 6.351
1.8441947499999287 0.019 -0.181 0.945 -4.389 -0.977 4.718
1.8514815409999983 0.031 -0.194 0.99 -5.588 -0.618 5.412
1.863618540999937 0.016 -0.191 0.962 -5.061 0.191 7.588
1.8709192079999184 0.024 -0.189 0.989 -2.458 1.702 8.763
1.8835864159999574 0.01 -0.197 0.961 -3.473 1.489 10.511
1.8954807079999227 -0.004 -0.2 0.975 -4.519 0.832 11.313
1.9029146660000151 0.009 -0.179 0.971 -4.198 0.229 10.015
1.9150824999999259 0.004 -0.175 0.971 -4.26 0.015 8.992
1.922611125000003 0.009 -0.177 0.973 -5.107 -0.282 8.427
1.9346219999999903 0.008 -0.188 0.964 -3.794 -0.191 7.939
1.9419174579999208 -0.008 -0.193 0.967 -4.802 -1.229 8.832
1.9542062499999702 -0.017 -0.199 0.95 -3.786 -2.427 8.832
1.9615593329999683 -0.014 -0.197 0.957 -4.305 -3.595 9.267
1.973537624999949 -0.013 -0.199 0.939 -3.298 -4.977 8.916
1.9855484579999256 -0.002 -0.189 0.957 -0.611 -5.214 8.107
1.9931154579999202 0.004 -0.182 0.947 -0.756 -6.092 7.137
2.0050958329999276 -0.003 -0.178 0.955 -1.16 -6.595 7.626
2.0123860410000134 0.008 -0.181 0.97 -0.389 -6.519 7.046
2.024648749999983 0.019 -0.188 0.961 -0.076 -6.008 7.389
2.0321914999999535 0.006 -0.2 0.97 1.145 -5.458 8.58
2.0442885410000144 -0.006 -0.204 0.957 2.504 -5.244 9.87
2.051493208000011 -0.005 -0.205 0.946 2.504 -5.351 11.511
2.063825749999978 -0.006 -0.199 0.946 2.427 -6.466 11.809
2.075778249999985 -0.0 -0.186 0.939 2.183 -7.145 11.893
2.083055040999966 0.013 -0.176 0.947 3.031 -7.015 10.847
2.095332290999977 0.014 -0.166 0.966 2.939 -6.611 11.511
2.1026384159999907 0.012 -0.181 0.952 1.542 -5.779 12.573
2.1148960829999623 0.015 -0.176 0.959 -1.412 -5.321 13.076
2.1221811249999973 0.015 -0.167 0.965 -4.053 -5.206 12.832
2.1341968749999296 0.015 -0.182 0.967 -4.176 -5.366 11.023
2.1414726659999133 0.014 -0.201 0.968 -3.489 -5.626 11.099
2.153526915999919 0.007 -0.201 0.961 -1.046 -5.595 11.832
2.165779332999932 0.008 -0.203 0.969 1.344 -6.031 13.55
2.173055665999982 0.012 -0.207 0.976 1.603 -6.366 15.359
2.185353040999985 0.016 -0.202 0.958 -0.008 -6.924 16.679
2.1926694159999442 0.018 -0.188 0.962 -0.336 -7.405 15.855
2.204656540999963 0.021 -0.182 0.962 -1.542 -7.542 16.939
2.211963374999982 0.014 -0.189 0.951 -1.817 -7.878 17.55
2.2239654579999524 0.013 -0.182 0.959 -1.878 -7.672 16.878
2.2313087499999256 0.02 -0.177 0.954 -1.824 -7.031 16.397
2.2435650410000108 0.033 -0.174 0.968 -1.573 -6.26 15.191
2.2556900829999904 0.024 -0.163 0.942 -0.809 -5.779 13.885
2.2630615409999564 0.027 -0.166 0.948 -0.679 -5.427 13.702
2.2749694999999974 0.016 -0.18 0.95 -1.0 -5.023 12.74
2.2818422079999436 0.004 -0.18 0.953 -2.557 -4.893 13.092
2.2944509159999598 0.011 -0.176 0.958 -1.481 -5.74 13.206
2.301782290999995 0.008 -0.186 0.965 -0.397 -5.809 13.389
2.313831790999984 0.02 -0.18 0.96 -0.847 -6.359 14.115
2.3197256249999327 0.042 -0.177 0.96 0.061 -6.885 12.84
2.3333575829999518 0.046 -0.172 0.977 0.321 -7.45 10.962
2.345575374999953 0.056 -0.174 0.98 -0.176 -7.244 9.504
2.3528870829999278 0.058 -0.179 0.982 0.336 -6.023 7.809
2.3651133749999644 0.055 -0.192 0.988 4.45 -3.763 7.618
2.3726696249999577 0.05 -0.208 0.996 4.855 -1.588 8.878
2.384934208000004 0.046 -0.206 0.984 4.427 -0.863 10.183
2.3923718749999807 0.038 -0.193 0.989 3.099 -0.015 12.74
2.404266708000023 0.033 -0.152 0.956 -2.206 -0.489 13.641
2.4117389159999902 0.035 -0.157 0.968 -2.0 0.145 12.298
2.423748250000017 0.047 -0.162 0.983 -0.931 1.473 10.565
2.431254165999917 0.065 -0.155 0.977 -0.901 3.115 9.13
2.4433692499999324 0.063 -0.162 0.994 -1.809 5.031 8.023
2.455800457999999 0.052 -0.167 0.977 -0.359 7.588 6.595
2.4631906249999247 0.028 -0.174 0.97 -0.351 8.107 6.458
2.4756032909999703 0.019 -0.189 0.965 1.573 7.092 7.924
2.4831140829999185 0.01 -0.181 0.946 0.061 5.466 9.702
2.495311124999944 0.024 -0.178 0.957 0.412 5.176 8.954
2.5029038750000154 0.039 -0.172 0.972 -0.244 5.023 8.519
2.515090832999931 0.055 -0.159 0.972 -1.229 6.0 7.107
2.522627208000017 0.058 -0.172 0.982 -0.282 7.427 6.023
2.5348708749999105 0.037 -0.173 0.967 0.771 8.885 6.305
2.5424265829999513 0.024 -0.193 0.96 0.527 9.565 6.969
2.554690124999979 0.027 -0.201 0.98 -2.832 10.206 8.885
2.56192324999995 0.004 -0.188 0.955 -2.824 10.176 8.229
2.5741903749999437 0.002 -0.193 0.946 0.634 9.824 8.832
2.5817480829999795 -0.002 -0.2 0.962 2.748 8.786 9.153
2.5939640409999356 0.004 -0.198 0.948 2.0 7.298 10.069
2.601478957999916 0.009 -0.179 0.955 0.069 5.71 10.87
2.613770250000016 0.016 -0.176 0.96 -0.725 4.771 9.992
2.619659707999972 0.023 -0.161 0.964 -1.534 4.847 9.29
2.633279499999958 0.021 -0.171 0.962 -0.282 5.573 8.183
2.645546665999973 0.013 -0.177 0.956 -0.122 5.817 9.962
2.6530907079999224 -0.005 -0.179 0.948 1.008 5.756 10.824
2.665091500000017 -0.011 -0.162 0.944 2.756 5.511 12.214
2.672647207999944 -0.005 -0.179 0.943 3.954 4.626 11.855
2.684876499999973 0.006 -0.186 0.969 3.641 3.878 11.573
2.6921868749999476 0.021 -0.162 0.964 2.229 3.481 11.237
2.704660915999966 0.025 -0.166 0.957 3.084 3.282 8.939
2.712245707999955 0.028 -0.162 0.981 3.244 3.588 7.809
2.7244137499999397 0.028 -0.176 0.984 4.206 3.443 7.443
2.731952582999952 0.014 -0.161 0.968 0.679 3.847 8.489
2.744210915999929 0.011 -0.176 0.957 -1.015 3.038 9.015
2.7518042499999638 0.009 -0.185 0.978 -3.565 1.947 9.824
2.7640039579999893 0.008 -0.178 0.962 -6.473 0.069 9.504
2.771266665999974 0.012 -0.169 0.958 -3.931 -1.176 8.046
2.7835224159999825 0.002 -0.171 0.931 0.298 -2.122 7.534
2.7957682499999237 0.015 -0.171 0.951 3.832 -1.962 6.626
2.803291833000003 0.019 -0.153 0.95 2.702 -1.573 6.405
2.815311332999954 0.025 -0.143 0.962 -1.756 -0.328 8.076
2.8228766249999353 0.024 -0.149 0.962 -3.794 1.42 8.901
2.835152207999954 0.02 -0.155 0.964 -6.366 3.069 10.756
2.842392082999936 -0.003 -0.157 0.949 -5.321 3.443 10.702
2.8544027079999523 -0.021 -0.182 0.932 -2.588 2.084 9.565
2.8617739159999473 -0.023 -0.191 0.941 -2.931 0.649 10.458
2.873533957999939 -0.018 -0.174 0.934 -2.947 -1.092 10.588
2.8857584159999305 -0.013 -0.167 0.924 -3.878 -2.763 10.061
2.89308929099991 -0.009 -0.161 0.939 -6.229 -4.198 10.664
2.905099790999998 0.001 -0.166 0.951 -7.359 -5.13 10.878
2.9123704159999306 0.004 -0.167 0.939 -6.527 -5.618 10.015
2.924688500000002 0.006 -0.174 0.957 -3.679 -5.122 9.802
2.9319934579999654 0.011 -0.184 0.977 -5.305 -4.069 11.779
2.943964957999924 0.008 -0.19 0.988 -3.916 -2.893 12.336
2.951302332999944 0.016 -0.187 0.982 -2.351 -1.809 14.16
2.9636132910000015 0.002 -0.199 0.971 -4.0 -1.84 15.282
2.9755939579999904 -0.004 -0.206 0.954 -3.695 -2.55 15.679
2.9823934159999226 -0.014 -0.209 0.954 -3.863 -4.359 15.389
2.994485166000004 -0.015 -0.191 0.953 -3.16 -6.473 15.634
3.0020708749999585 -0.007 -0.184 0.948 -3.237 -8.336 14.893
3.013980208000021 0.018 -0.193 0.984 -2.015 -8.221 13.344
3.0212762499999144 0.05 -0.167 0.993 -2.092 -6.656 12.893
3.033523500000001 0.05 -0.153 0.978 -3.061 -4.756 10.626
3.045611082999926 0.034 -0.155 0.99 -0.687 -2.26 9.137
3.052906249999978 0.016 -0.173 0.978 -6.382 -1.458 10.504
3.064902874999916 -0.001 -0.185 0.968 -6.74 -0.802 10.13
3.0719099159999814 -0.007 -0.187 0.965 -6.191 -1.076 11.809
3.084217624999951 -0.011 -0.181 0.957 -5.74 -1.649 12.374
3.091510957999958 -0.018 -0.182 0.945 -1.885 -2.427 12.405
3.103540207999913 -0.015 -0.197 0.95 -1.344 -3.908 12.771
3.1155589579999514 -0.012 -0.187 0.936 -2.588 -5.863 12.168
3.122896207999929 0.005 -0.19 0.957 0.603 -6.771 10.221
3.134850916000005 0.034 -0.176 0.986 -0.893 -6.221 10.55
3.142161582999961 0.04 -0.146 0.974 -3.099 -4.725 10.244
3.154432290999921 0.038 -0.155 0.979 -3.45 -2.916 9.695
3.1617066249999652 0.03 -0.175 0.99 -3.58 -0.725 8.58
3.173971415999972 0.011 -0.189 0.976 -1.16 0.099 9.443
3.181481415999997 0.003 -0.212 0.977 0.244 0.336 10.298
3.19376966599998 0.001 -0.216 0.97 0.511 -0.061 12.473
3.205769499999974 0.001 -0.189 0.95 -1.611 -1.916 12.885
3.2131219159999773 0.01 -0.187 0.954 -1.267 -3.305 11.534
3.225086749999946 0.019 -0.181 0.983 -1.183 -4.351 10.748
3.2327131659999395 0.005 -0.176 0.957 0.802 -4.656 8.061
3.2448543749999317 0.022 -0.178 0.977 2.435 -4.504 7.405
3.252411957999925 0.034 -0.191 0.984 1.038 -3.374 8.71
3.264656749999972 0.036 -0.197 0.971 0.603 -2.443 9.458
3.2720260410000037 0.028 -0.199 0.968 1.305 -2.168 9.221
3.2842763749999904 0.014 -0.214 0.968 -1.344 -3.137 11.076
3.291497124999978 0.024 -0.213 0.973 -3.023 -4.351 13.038
3.30355629099995 0.006 -0.194 0.965 -2.641 -5.489 13.496
3.3156254579999995 0.01 -0.19 0.977 -1.481 -5.427 13.611
3.322930541000005 0.011 -0.166 0.977 -1.344 -5.176 13.122
3.3351377909999655 0.013 -0.154 0.95 1.015 -4.924 10.924
3.3423811659999956 0.019 -0.152 0.954 0.947 -4.58 10.763
3.3546587499999987 0.03 -0.167 0.97 -0.328 -4.336 9.947
3.3621867079999674 0.046 -0.19 0.979 1.71 -3.557 8.099
3.3744381249999833 0.042 -0.19 0.969 0.099 -2.786 7.45
3.381693999999925 0.03 -0.202 0.961 1.023 -2.679 7.076
3.39395449999995 0.019 -0.18 0.956 -0.214 -2.771 8.214
3.4013015409999525 0.028 -0.157 0.967 -1.046 -2.137 8.824
3.4135122499999397 0.026 -0.146 0.951 -2.443 -1.221 8.725
3.4258600409999644 0.015 -0.149 0.959 -3.565 -0.473 8.176
3.432878040999981 0.01 -0.167 0.951 -5.366 -0.786 7.626
3.445344832999922 0.005 -0.201 0.967 -4.023 -0.84 7.908
3.4526332909999837 0.02 -0.207 0.951 -0.962 -0.42 5.58
3.4650019160000056 0.027 -0.197 0.971 -0.863 -0.603 5.405
3.472172415999921 0.009 -0.181 0.966 -0.069 -0.382 4.252
3.4844425 0.005 -0.181 0.951 1.893 -0.206 3.672
3.4919298749999825 0.004 -0.171 0.962 2.031 0.313 4.42
3.5042102080000177 0.001 -0.176 0.949 -0.023 0.443 5.87
3.511743332999913 0.002 -0.194 0.962 -0.977 0.847 7.748
3.523987457999965 0.002 -0.196 0.93 -0.183 0.168 7.015
3.5313289999999142 0.013 -0.204 0.97 1.427 -0.374 7.115
3.5435429999999997 0.02 -0.199 0.956 -0.74 -1.038 6.962
3.5557550409999976 0.013 -0.182 0.961 0.282 -1.489 5.076
3.5633053749999135 0.01 -0.172 0.947 0.107 -2.092 3.359
3.5753196659999276 0.013 -0.181 0.959 -1.71 -1.87 3.328
3.582917082999984 0.012 -0.164 0.952 -3.565 -1.664 4.053
3.594842665999977 0.019 -0.153 0.954 -2.771 -1.763 2.489
3.6023939159999827 0.019 -0.156 0.951 -0.061 -1.122 0.206
3.614405040999941 0.013 -0.192 0.952 0.328 -1.305 -0.176
3.6219953329999726 0.022 -0.198 0.962 -1.466 -1.481 1.229
3.6339700830000083 0.028 -0.171 0.951 -1.595 -1.298 1.824
3.641508374999944 0.032 -0.165 0.953 -3.977 -0.756 3.046
3.6537755829999696 0.033 -0.174 0.962 -6.229 0.015 3.55
3.659694208000019 0.019 -0.162 0.967 -5.985 0.954 3.008
3.673279915999956 0.018 -0.172 0.947 -7.435 1.229 2.817
3.685528125000019 0.014 -0.193 0.962 -8.389 1.779 2.702
3.693062374999954 0.017 -0.198 0.967 -7.405 2.443 2.511
3.705361957999912 0.007 -0.206 0.945 -6.344 2.198 1.336
3.712907540999936 0.007 -0.204 0.958 -7.405 1.015 2.473
3.7251131659999146 0.009 -0.197 0.957 -6.878 0.244 1.878
3.7323740409999573 0.016 -0.207 0.979 -4.863 0.557 1.489
3.744651499999918 0.015 -0.18 0.965 -5.725 1.298 2.191
3.752177915999937 -0.002 -0.189 0.96 -2.695 1.817 1.214
3.7641814999999497 -0.006 -0.206 0.971 -2.679 1.473 2.71
3.771719249999933 -0.012 -0.201 0.958 -4.122 0.427 4.603
3.783744874999911 -0.008 -0.189 0.944 -3.626 -1.053 3.802
3.795764207999923 -0.008 -0.213 0.966 -2.969 -2.107 3.656
3.803041832999952 -0.001 -0.203 0.965 -4.527 -2.076 4.618
3.815332415999933 0.008 -0.185 0.948 -2.588 -2.298 2.908
3.822606999999948 0.011 -0.206 0.97 -2.359 -2.092 2.885
3.8348924160000024 0.016 -0.199 0.973 -4.641 -1.771 4.992
3.8421611249999614 0.021 -0.199 0.958 -2.641 -1.16 5.496
3.8544397910000043 0.005 -0.212 0.955 -2.504 -1.832 6.58
3.861491290999993 -0.0 -0.208 0.959 -3.0 -2.809 7.168
3.8738085829999136 0.009 -0.201 0.961 -0.863 -3.198 4.55
3.881254457999944 0.024 -0.191 0.946 1.061 -3.076 1.916
3.8935483330000125 0.024 -0.2 0.964 0.198 -2.71 2.618
3.9057660409999926 0.016 -0.201 0.954 -1.908 -2.695 3.786
3.913047082999924 0.017 -0.191 0.935 -3.29 -2.496 4.069
3.925420749999944 0.015 -0.217 0.968 -3.214 -2.992 4.168
3.9326294159999406 0.016 -0.204 0.946 -6.008 -3.832 5.29
3.9448825829999805 0.025 -0.198 0.955 -5.214 -3.443 4.763
3.952173415999937 0.026 -0.198 0.945 -3.115 -2.779 2.252
3.964460790999965 0.027 -0.206 0.961 -2.588 -2.878 2.557
3.9717535409999982 0.036 -0.205 0.956 -0.802 -2.924 2.985
3.9839734999999337 0.036 -0.219 0.967 0.061 -2.969 3.038
3.9912678749999486 0.046 -0.203 0.98 -0.282 -2.649 3.298
4.003387332999978 0.036 -0.185 0.951 -0.107 -2.427 1.748
