Time AX AY AZ GX GY GZ
0.013935500000002321 0.109 -0.173 0.964 -0.168 -0.443 0.145
0.026271874999999056 0.12 -0.179 0.964 -2.405 -0.473 0.336
0.0333011660000011 0.109 -0.179 0.942 -1.099 -1.359 -2.901
0.04545916600000055 0.117 -0.191 0.971 1.664 -0.725 -4.702
0.05271433299999728 0.11 -0.175 0.957 -0.534 -0.702 -3.115
0.06500962500000185 0.119 -0.185 0.971 0.74 -0.084 -2.55
0.07231354099999976 0.12 -0.183 0.976 0.687 0.954 -1.244
0.08478033299999765 0.108 -0.176 0.969 -0.679 1.366 0.733
0.09201162499999782 0.109 -0.173 0.951 0.611 1.733 0.466
0.104489375 0.092 -0.179 0.95 0.252 1.359 1.954
0.11180941599999983 0.085 -0.185 0.948 0.534 0.252 2.458
0.12418850000000248 0.077 -0.173 0.945 0.656 -1.573 2.13
0.13167362499999768 0.097 -0.171 0.948 0.0 -2.611 1.55
0.1439347909999995 0.108 -0.167 0.949 1.313 -2.55 -1.435
0.1562072910000012 0.124 -0.146 0.966 0.328 -1.504 -1.863
0.16349037500000208 0.135 -0.176 0.968 -0.107 0.542 -2.756
0.1757006249999975 0.12 -0.171 0.963 0.244 1.87 -3.626
0.18322491600000035 0.114 -0.169 0.958 0.496 2.802 -1.107
0.19547745799999916 0.109 -0.178 0.974 1.198 3.634 -0.687
0.20299958300000043 0.102 -0.182 0.967 1.16 3.603 -0.863
0.21531312500000155 0.1 -0.182 0.959 2.649 2.939 -2.092
0.22261308299999882 0.11 -0.192 0.967 3.573 2.038 -4.046
0.23488204099999876 0.11 -0.177 0.968 2.908 1.107 -3.672
0.24232008300000274 0.138 -0.189 0.987 3.573 1.84 -1.962
0.2546228329999991 0.13 -0.157 0.974 -0.282 2.542 0.237
0.2621235829999975 0.15 -0.163 0.977 1.939 3.687 1.45
0.2744452499999994 0.144 -0.155 1.0 0.679 5.832 1.824
0.2818959159999963 0.112 -0.143 0.953 -2.382 4.641 0.008
0.29416687500000194 0.117 -0.158 0.981 4.481 4.519 -1.802
0.30641266599999994 0.128 -0.17 0.993 0.13 4.412 -2.931
0.3139592909999962 0.124 -0.159 0.993 -1.534 4.412 1.137
0.325960000000002 0.128 -0.161 0.995 -1.229 5.969 -0.611
0.33350124999999764 0.117 -0.164 0.985 -2.435 6.008 0.305
0.3457365829999972 0.103 -0.178 1.006 -1.275 5.992 -2.046
0.35298187499999756 0.105 -0.183 1.019 1.679 6.153 -1.534
0.3652737079999966 0.11 -0.157 1.011 -1.092 8.137 4.099
0.3725504579999992 0.109 -0.158 1.018 -2.382 8.756 6.198
0.38506650000000064 0.072 -0.151 1.001 -2.191 7.412 7.527
0.39229054100000127 0.08 -0.151 0.997 -5.29 5.573 7.603
0.4048694159999968 0.087 -0.183 1.006 -2.038 4.328 2.977
0.41195366600000227 0.091 -0.181 1.0 -1.756 4.053 4.557
0.4245039580000025 0.075 -0.188 0.997 -1.374 2.504 2.901
0.43167470800000274 0.094 -0.181 0.994 2.053 2.893 2.443
0.4444986660000012 0.08 -0.17 0.987 0.794 2.137 2.718
0.4503539580000009 0.092 -0.154 0.982 -0.29 1.534 3.832
0.46388695799999624 0.07 -0.162 0.991 0.504 1.664 6.061
0.4763312500000012 0.077 -0.125 0.974 -3.687 0.595 6.985
0.48347466599999933 0.099 -0.135 0.981 -5.359 0.885 7.672
0.49606204100000184 0.118 -0.179 0.993 -3.901 2.55 4.779
0.5035286660000011 0.089 -0.156 0.984 -4.435 2.664 2.931
0.5157330409999972 0.082 -0.202 0.992 -2.58 2.473 1.046
0.5232754999999969 0.091 -0.239 0.997 1.229 3.435 -1.344
0.5355193329999963 0.099 -0.185 0.992 1.573 5.359 1.061
0.5430036249999972 0.087 -0.166 0.979 3.962 5.702 1.13
0.5552607500000022 0.068 -0.145 0.96 3.481 3.893 1.969
0.5627745829999995 0.049 -0.097 0.937 -3.618 -0.847 2.939
0.5749094580000005 0.065 -0.155 0.965 -2.069 -4.046 0.931
0.582381790999996 0.054 -0.124 0.943 -8.603 -8.023 0.0
0.5943879579999987 0.118 -0.177 0.968 -13.626 -4.336 -5.115
0.6064043749999968 0.14 -0.186 1.014 -10.168 -4.168 0.656
0.6134436250000022 0.093 -0.152 1.032 -12.504 0.046 3.542
0.6259392500000018 0.102 -0.203 0.995 -2.534 1.328 -0.656
0.6330600829999966 0.066 -0.178 0.968 -3.763 2.023 4.115
0.6453170409999984 0.048 -0.178 0.96 -4.069 -1.87 3.26
0.6525104580000018 0.083 -0.191 0.964 0.496 -3.237 4.588
0.6652183329999986 0.106 -0.2 0.972 1.878 -2.863 3.519
0.6726744999999994 0.103 -0.166 0.956 4.168 -3.053 2.489
0.6849812499999999 0.083 -0.224 0.966 9.863 -3.687 6.71
0.6921072909999992 0.121 -0.173 0.974 5.298 0.611 6.809
0.7046877080000016 0.118 -0.142 0.97 3.496 0.962 5.672
0.7120803329999958 0.112 -0.144 0.958 4.893 2.038 1.985
0.724510500000001 0.08 -0.15 0.96 4.267 -0.397 5.351
0.7319515410000008 0.078 -0.159 0.961 3.74 -0.489 -2.992
0.7441230410000017 0.093 -0.175 0.97 6.321 -1.313 -5.244
0.7564057909999988 0.105 -0.17 0.976 4.405 -0.298 -2.985
0.7636811659999978 0.099 -0.159 0.975 3.611 0.26 -0.046
0.7762637080000019 0.085 -0.182 0.978 2.122 1.481 2.046
0.7837951659999973 0.068 -0.188 0.966 2.443 0.115 2.191
0.7960162079999975 0.096 -0.183 0.992 2.221 1.099 4.664
0.8032015829999963 0.089 -0.169 0.976 0.977 0.42 6.779
0.8156052909999971 0.086 -0.133 0.948 0.557 -0.71 5.748
0.8227690829999972 0.09 -0.165 0.968 -2.053 -1.435 6.084
0.8352925829999975 0.09 -0.159 0.97 -4.473 -2.183 6.931
0.8423474160000026 0.085 -0.179 0.979 -3.237 -1.649 1.618
0.8547627080000026 0.077 -0.185 0.973 -4.55 -2.076 5.542
0.8620805830000009 0.094 -0.195 0.966 -5.672 -1.038 7.206
0.8743601660000024 0.077 -0.171 0.969 -5.74 -0.13 9.359
0.886383207999998 0.073 -0.129 0.948 -7.29 -1.908 11.656
0.8939312500000014 0.062 -0.178 0.953 -5.649 -2.908 9.794
0.9059322079999959 0.061 -0.142 0.945 -6.183 -4.947 9.069
0.913480958000001 0.064 -0.167 0.952 -5.466 -5.649 9.794
0.9254993329999976 0.052 -0.177 0.951 -4.328 -6.595 7.855
0.9330925000000008 0.06 -0.2 0.959 0.756 -6.863 6.565
0.9453404160000005 0.073 -0.171 0.951 0.573 -6.939 6.458
0.9528164999999973 0.119 -0.185 0.973 1.55 -5.641 4.695
0.9650703329999999 0.129 -0.185 0.981 2.924 -2.55 3.237
0.9725678750000029 0.131 -0.178 0.972 2.916 0.374 4.252
0.9848472500000014 0.12 -0.184 0.971 2.733 1.473 3.26
0.9923621249999997 0.081 -0.166 0.965 2.458 0.832 4.679
1.0046844999999962 0.077 -0.117 0.951 -0.649 -2.275 7.466
1.0119427079999994 0.097 -0.187 0.975 4.71 -3.595 4.733
1.0242362079999978 0.108 -0.202 0.989 3.023 -0.992 6.374
1.036434374999999 0.078 -0.187 0.959 1.435 -0.969 8.969
1.0440462910000008 0.054 -0.221 0.958 6.84 0.023 5.405
1.0564112909999963 0.076 -0.203 0.978 8.061 0.618 7.26
1.0636708329999962 0.072 -0.169 0.941 4.29 -0.473 9.695
1.0759596249999959 0.067 -0.149 0.943 4.359 -1.527 9.908
1.083266082999998 0.105 -0.113 0.948 -0.588 -2.069 11.893
1.0954945410000008 0.126 -0.127 0.948 -1.595 -1.664 11.153
1.1028479579999981 0.135 -0.098 0.962 -3.634 0.603 12.084
1.115134249999997 0.091 -0.231 0.931 1.511 0.145 1.42
1.1225924159999963 0.121 -0.186 0.979 -6.672 1.901 11.328
1.1348811249999997 0.111 -0.232 0.994 -1.824 2.321 5.618
1.1423301660000007 0.107 -0.208 0.988 0.985 3.542 6.397
1.1543457499999974 0.132 -0.162 1.007 -0.061 4.374 14.939
1.161914791000001 0.1 -0.183 0.963 1.58 2.351 7.382
1.1743617500000028 0.121 -0.181 0.98 0.458 2.168 9.924
1.1803606659999986 0.107 -0.14 0.969 -1.137 1.053 9.817
1.1939019160000015 0.125 -0.141 0.963 -1.885 1.137 6.16
1.2061782079999972 0.106 -0.148 0.96 -3.069 1.344 3.481
1.2137452079999989 0.115 -0.13 0.969 -5.695 1.931 -0.13
1.2257162499999978 0.116 -0.13 0.958 -10.137 1.649 -0.405
1.2330211660000003 0.12 -0.173 0.951 -7.748 3.107 -9.206
1.245315957999999 0.097 -0.2 0.984 -7.763 4.29 -18.603
1.2523404160000027 0.112 -0.24 1.052 -4.252 10.176 -12.832
1.2646253750000014 0.067 -0.206 0.991 -0.916 3.336 10.26
1.272231749999996 0.061 -0.175 0.969 -0.542 1.908 9.366
1.2841936660000002 0.081 -0.174 0.967 -1.275 -0.122 12.191
1.2962038749999962 0.105 -0.148 0.978 -0.954 -0.794 14.008
1.3037619580000026 0.118 -0.154 0.973 -0.389 0.015 11.107
1.3157222500000003 0.088 -0.14 0.96 -1.366 0.389 10.366
1.323258291000002 0.086 -0.182 0.978 2.947 -0.176 6.504
1.335570791000002 0.066 -0.168 0.956 2.435 -0.473 0.748
1.3427887499999969 0.085 -0.215 0.976 5.901 -1.099 -2.45
1.355076582999999 0.091 -0.201 0.982 3.42 -2.015 2.863
1.3626434580000009 0.107 -0.202 0.973 3.229 -2.618 5.427
1.374982666000001 0.111 -0.175 0.966 4.885 -2.794 5.206
1.3823847079999965 0.118 -0.18 0.965 5.26 -3.069 4.45
1.3943609999999964 0.12 -0.183 0.961 6.55 -2.382 -0.351
1.401877208000002 0.119 -0.129 0.959 5.718 -0.718 0.45
1.4141315409999962 0.132 -0.147 0.967 6.649 1.382 -0.389
1.4263871659999978 0.106 -0.17 0.958 6.29 2.779 0.504
1.4339165000000023 0.09 -0.143 0.944 4.008 2.824 0.282
1.4464182079999972 0.088 -0.174 0.938 5.695 2.481 0.008
1.4536968749999986 0.088 -0.201 0.965 4.664 3.359 -0.198
1.4661703749999973 0.069 -0.178 0.949 5.893 2.954 2.015
1.4734757080000023 0.077 -0.21 0.966 11.031 3.939 -0.695
1.4856968329999987 0.079 -0.138 0.95 8.542 3.527 2.397
1.493210290999997 0.084 -0.137 0.949 7.908 2.649 0.588
1.5054521659999978 0.097 -0.147 0.961 8.046 3.916 -0.893
1.5129854159999994 0.095 -0.115 0.936 3.618 3.962 -0.076
1.5252416249999996 0.107 -0.158 0.953 4.427 5.13 -1.611
1.5327580000000012 0.095 -0.139 0.952 1.733 5.168 1.817
1.5451212500000011 0.071 -0.155 0.94 1.031 3.763 -1.695
1.5525286660000006 0.093 -0.137 0.951 2.931 3.878 -3.084
1.5645880000000005 0.076 -0.123 0.934 -2.496 2.229 -0.458
1.5721103750000012 0.081 -0.149 0.948 -3.115 1.954 -3.031
1.5843504159999995 0.122 -0.169 0.972 -3.275 4.336 0.916
1.590317958 0.1 -0.158 0.957 -4.962 6.565 6.137
1.6038944579999992 0.08 -0.128 0.956 -3.626 6.672 5.977
1.6161825410000006 0.077 -0.153 0.962 -2.649 5.733 6.183
1.6236917080000026 0.062 -0.142 0.945 -3.389 3.931 5.092
1.635928082999996 0.082 -0.113 0.944 -5.244 3.069 2.481
1.6434511249999986 0.092 -0.129 0.955 -7.275 3.832 3.763
1.655455916000001 0.065 -0.129 0.955 -5.649 4.641 -1.634
1.663037666000001 0.067 -0.142 0.927 -7.061 2.786 -1.687
1.6749336660000012 0.084 -0.182 0.97 -3.42 4.16 -5.252
1.6823470829999962 0.076 -0.164 0.948 -2.115 3.557 -5.504
1.694411541000001 0.097 -0.181 0.981 -0.885 4.107 -4.496
1.7021462909999983 0.078 -0.15 0.954 -3.763 3.42 -2.26
1.7144097500000015 0.07 -0.172 0.948 1.099 3.481 -7.313
1.7263752909999965 0.076 -0.17 0.972 -0.412 2.473 -3.328
1.733913416 0.055 -0.149 0.954 0.344 1.771 -3.855
1.746157666000002 0.065 -0.168 0.963 1.908 2.427 -3.611
1.7534564580000023 0.064 -0.135 0.947 -2.565 1.687 -1.351
1.765750582999999 0.072 -0.157 0.955 -1.359 3.008 -3.069
1.7733609579999978 0.077 -0.165 0.981 0.527 4.939 -2.794
1.7853720829999986 0.045 -0.172 0.957 -0.527 3.351 -1.878
1.7925652910000025 0.037 -0.192 0.962 2.931 2.16 -2.26
1.8051835830000016 0.057 -0.197 0.985 4.221 1.137 -1.481
1.8125899160000003 0.074 -0.138 0.96 5.557 1.191 -2.443
1.8249608329999987 0.086 -0.123 0.963 3.29 0.466 -2.809
1.8320888330000002 0.092 -0.104 0.967 -0.351 1.229 -1.359
1.8443641659999983 0.093 -0.125 0.983 -2.145 1.962 -0.885
1.8502899579999976 0.081 -0.173 0.985 -1.458 3.359 0.008
1.8639842500000015 0.059 -0.163 0.966 -1.679 3.084 0.389
1.8761406659999977 0.057 -0.208 0.988 4.695 2.947 -2.748
1.8836508750000007 0.06 -0.188 1.003 5.351 2.359 -2.893
1.8959580829999965 0.068 -0.144 0.978 4.962 0.649 -3.695
1.903453208000002 0.081 -0.16 0.998 5.947 0.695 -5.885
1.9157089579999962 0.075 -0.141 0.984 3.626 0.267 -3.031
1.9229652499999972 0.062 -0.124 0.988 1.855 -0.16 -4.038
1.9351298750000012 0.067 -0.134 0.998 1.87 0.26 -4.076
1.9428518329999989 0.048 -0.157 0.974 3.0 0.71 -4.679
1.9550755409999994 0.042 -0.16 0.981 4.061 1.435 -2.038
1.9625896249999997 0.049 -0.144 0.976 2.427 1.069 2.053
1.9747493329999983 0.053 -0.162 0.979 3.779 0.885 1.924
1.982297457999998 0.041 -0.161 0.983 2.588 -0.298 2.634
1.9941434999999998 0.044 -0.157 0.975 5.137 -1.023 -0.336
2.0018095829999965 0.041 -0.163 0.99 7.939 -1.977 -2.137
2.0139198330000028 0.026 -0.133 0.964 6.74 -4.366 -4.137
2.0261805410000022 0.06 -0.137 0.981 7.603 -5.473 -5.802
2.0334585410000017 0.084 -0.127 0.975 7.183 -4.427 -4.87
2.045710958000001 0.091 -0.142 0.981 8.099 -1.931 -3.771
2.053203124999996 0.075 -0.142 0.988 6.45 -1.084 0.588
2.0655325829999995 0.056 -0.147 0.981 7.527 -1.168 1.252
2.072774541000001 0.045 -0.134 0.968 8.664 -1.802 1.267
2.0850447500000016 0.038 -0.137 0.972 9.023 -3.198 -0.244
2.092245624999997 0.061 -0.136 0.968 12.252 -3.084 -1.718
2.1043529159999963 0.074 -0.115 0.983 11.229 -2.786 -0.031
2.111870916000001 0.074 -0.094 0.964 9.168 -3.053 0.122
2.1241377500000027 0.089 -0.102 0.975 9.221 -2.183 -1.847
2.136128833000001 0.086 -0.127 0.973 8.908 -1.298 -0.954
2.1436488330000003 0.083 -0.146 0.987 8.771 -0.038 1.595
2.155929874999998 0.081 -0.153 0.969 8.015 0.656 2.771
2.1634136659999967 0.078 -0.123 0.963 8.763 1.473 3.58
2.1756875829999984 0.082 -0.147 0.966 11.321 2.611 4.939
2.1832107500000006 0.058 -0.116 0.949 10.649 2.214 4.252
2.195503207999998 0.064 -0.063 0.945 8.519 0.901 3.687
2.203041208000002 0.062 -0.069 0.945 6.756 -0.015 -0.389
2.215263915999998 0.087 -0.085 0.96 6.824 0.618 -3.885
2.222574666 0.086 -0.099 0.968 5.931 2.206 -2.496
2.2350230830000015 0.075 -0.1 0.979 4.29 3.229 0.366
2.2425643750000006 0.064 -0.117 0.964 6.191 4.092 0.351
2.254867124999997 0.057 -0.107 0.96 5.924 3.809 4.389
2.2622829159999966 0.067 -0.117 0.969 5.534 3.557 5.565
2.274668999999996 0.064 -0.1 0.967 7.145 3.687 3.038
2.2818393330000006 0.06 -0.07 0.95 2.832 2.603 3.679
2.2945895410000006 0.042 -0.058 0.961 1.611 1.931 4.145
2.3021477079999997 0.049 -0.07 0.963 1.695 1.626 0.237
2.314364832999999 0.058 -0.113 0.963 2.42 1.443 -1.954
2.320339500000003 0.062 -0.145 0.978 3.611 2.534 -1.481
2.334198166 0.063 -0.132 0.959 4.702 3.344 1.656
2.3463787499999995 0.034 -0.113 0.958 3.359 1.71 4.893
2.353892082999998 0.065 -0.087 0.953 3.779 0.458 3.183
2.366174665999999 0.067 -0.075 0.957 2.427 0.092 2.534
2.3737241250000025 0.073 -0.061 0.945 1.687 0.16 1.847
2.3861098750000025 0.069 -0.065 0.961 1.214 0.221 0.267
2.3934183329999996 0.063 -0.067 0.953 -1.481 -0.031 0.382
2.4057587909999967 0.097 -0.061 0.965 -3.901 1.145 3.641
2.4132582499999984 0.103 -0.11 1.001 -2.634 5.344 4.076
2.425518957999998 0.052 -0.038 0.931 -9.046 3.122 9.672
2.4327974159999997 0.085 -0.117 0.968 -6.718 4.481 8.954
2.445028166 0.062 -0.101 0.964 -6.176 5.55 10.374
2.4525512080000027 0.03 -0.113 0.948 -4.45 3.672 7.427
2.4648466659999997 0.039 -0.127 0.967 0.313 3.015 3.947
2.472415208000001 0.027 -0.125 0.946 -0.901 0.458 2.023
2.484599582999998 0.043 -0.1 0.951 0.221 0.229 -0.702
2.4921149159999985 0.057 -0.092 0.963 0.382 0.069 0.344
2.5043693329999996 0.074 -0.103 0.963 0.45 0.221 0.611
2.5119329159999992 0.083 -0.073 0.952 -1.595 0.237 3.145
2.524139583 0.089 -0.089 0.963 -2.634 0.878 4.733
2.536439541 0.109 -0.129 0.986 -0.656 2.664 5.053
2.543616415999999 0.086 -0.085 0.969 -1.527 3.412 6.557
2.5559111660000013 0.077 -0.082 0.973 -0.557 4.389 6.198
2.563449083000002 0.046 -0.092 0.953 -2.466 2.427 7.099
2.575845207999997 0.025 -0.059 0.925 -3.229 -0.198 4.733
2.583010541 0.046 -0.081 0.95 -2.527 -1.221 -0.038
2.5950166659999994 0.056 -0.08 0.955 -2.771 -1.427 -1.649
2.6023225409999995 0.071 -0.112 0.973 -0.29 -0.099 -5.977
2.614599040999998 0.08 -0.107 0.966 -1.489 0.282 -4.664
2.6218534160000004 0.081 -0.103 0.981 -1.641 2.084 -1.603
2.634193332999999 0.056 -0.057 0.963 -4.229 0.351 0.244
2.6463821250000024 0.081 -0.083 0.99 -4.16 0.634 0.656
2.6536394580000007 0.078 -0.062 0.961 -8.046 -0.229 2.29
2.6659278750000013 0.076 -0.084 0.965 -7.611 0.214 -0.366
2.6731989999999968 0.091 -0.101 0.982 -7.71 1.397 -1.924
2.685466333000001 0.091 -0.125 0.982 -6.672 2.527 0.405
2.693012875000001 0.069 -0.131 0.963 -5.954 3.672 -1.435
2.7052559159999987 0.056 -0.167 1.01 -1.962 1.992 5.45
2.7125758330000025 0.038 -0.117 0.968 -4.58 2.84 0.435
2.7248195000000024 0.065 -0.123 0.995 -3.756 2.771 2.229
2.732343499999999 0.076 -0.091 0.974 -6.298 2.069 3.244
2.744556791000001 0.088 -0.094 0.979 -8.115 2.901 4.206
2.7521244579999973 0.073 -0.092 0.965 -8.267 3.405 4.176
2.7643357079999973 0.067 -0.155 0.975 -6.458 3.962 4.511
2.7703982909999993 0.041 -0.13 0.951 -7.885 2.458 6.824
2.7839346660000004 0.035 -0.131 0.966 -4.267 1.702 3.901
2.7961565829999984 0.034 -0.118 0.948 -3.359 0.214 1.985
2.80368 0.077 -0.109 0.97 -4.443 0.847 5.374
2.815927375000001 0.094 -0.099 0.981 -5.748 2.397 4.649
2.823512416 0.06 -0.085 0.951 -7.336 2.038 4.397
2.8354902909999993 0.051 -0.104 0.937 -7.565 0.626 -0.618
2.842760833 0.061 -0.141 0.963 -7.565 -0.252 -0.901
2.855040625000001 0.066 -0.101 0.964 -7.382 -0.046 -0.687
2.862287875 0.062 -0.127 0.974 -5.115 0.336 -3.328
2.874604749999996 0.067 -0.142 0.983 -3.611 1.0 -1.359
2.8819060410000006 0.035 -0.135 0.965 -2.443 1.191 -0.733
2.894161416000003 0.036 -0.096 0.966 -5.084 -0.496 1.595
2.906176875 0.042 -0.091 0.968 -5.695 -1.473 2.725
2.913673250000002 0.052 -0.092 0.971 -8.298 -1.702 4.206
2.925687541000002 0.079 -0.149 0.981 -5.832 0.206 -0.313
2.932883374999996 0.076 -0.184 0.985 -5.336 2.42 2.458
2.9455483750000013 0.034 -0.148 0.965 -5.214 1.656 3.779
2.953015332999996 0.024 -0.175 0.98 -4.557 0.115 3.565
2.9650010410000007 0.017 -0.126 0.964 -6.55 -3.412 2.603
2.972323375000002 0.025 -0.142 0.965 -5.908 -5.809 -3.71
2.9843793329999997 0.061 -0.13 0.971 -6.198 -5.458 -2.099
2.991895665999998 0.064 -0.17 0.982 -4.45 -3.885 -1.565
3.003879791000003 0.073 -0.187 0.995 -1.916 -1.992 0.542
3.0161273749999964 0.054 -0.159 0.983 -0.733 -2.198 4.137
3.023726916000001 0.074 -0.154 0.99 1.084 -2.466 3.595
3.035967833000001 0.074 -0.163 0.984 0.221 -3.061 6.275
3.043179957999996 0.074 -0.132 0.994 1.74 -2.74 5.099
3.0554407910000023 0.077 -0.128 0.983 1.908 -2.557 2.076
3.0630399579999974 0.079 -0.099 0.969 0.901 -2.252 -2.061
3.0750115000000022 0.107 -0.111 0.98 1.328 -0.672 -5.924
3.0825902500000026 0.102 -0.157 0.991 1.046 2.046 -6.321
3.094848290999998 0.085 -0.189 0.984 3.221 4.42 -3.656
3.1023056659999995 0.046 -0.138 0.959 0.916 4.107 2.992
3.1145620409999992 0.023 -0.151 0.963 2.183 2.359 3.733
3.1221298330000025 0.021 -0.138 0.959 2.443 0.534 4.603
3.134338665999998 0.016 -0.109 0.954 2.107 -1.656 3.122
3.141851625000001 0.016 -0.113 0.951 2.901 -3.534 -1.748
3.1539046250000027 0.04 -0.106 0.942 2.382 -4.183 -4.0
3.1661557910000013 0.064 -0.115 0.96 3.145 -3.496 -6.405
3.173422207999998 0.086 -0.154 0.972 4.275 -1.305 -6.13
3.185680583 0.086 -0.156 0.971 4.16 0.145 -0.634
3.193200916000002 0.055 -0.14 0.949 4.802 0.221 1.786
3.205453915999996 0.019 -0.104 0.94 2.664 -2.611 3.893
3.213008416000001 0.014 -0.095 0.948 1.656 -4.534 5.115
3.2252589579999977 0.025 -0.096 0.948 -0.168 -5.84 6.275
3.2325531660000024 0.029 -0.112 0.96 1.344 -5.374 3.977
3.244821625 0.026 -0.104 0.947 1.229 -5.763 3.58
3.252310125000001 0.05 -0.12 0.959 3.084 -4.237 3.0
3.264565083000001 0.085 -0.125 0.973 4.427 -1.992 3.809
3.2722126660000015 0.065 -0.125 0.959 3.802 -2.771 3.847
3.2843533329999985 0.071 -0.119 0.967 2.626 -3.542 4.137
3.2904031659999973 0.079 -0.094 0.974 1.695 -3.26 6.435
3.303890166000002 0.111 -0.105 0.975 2.351 -1.832 7.466
3.31637525 0.116 -0.136 0.989 3.802 0.947 5.237
3.3238992909999965 0.1 -0.109 0.97 3.359 1.87 3.916
3.3361474579999992 0.094 -0.128 0.968 2.977 2.824 3.588
3.3436712909999997 0.07 -0.097 0.962 0.046 2.58 6.153
3.3559243750000007 0.065 -0.079 0.979 -1.847 3.389 6.969
3.363239041 0.05 -0.075 0.949 -2.893 2.198 4.679
3.3757847079999976 0.084 -0.121 0.971 -1.87 3.405 2.893
3.3829767499999974 0.099 -0.119 0.97 -1.618 4.26 2.588
3.395234875 0.118 -0.143 0.982 2.756 5.969 -3.947
3.402766374999999 0.098 -0.155 0.993 5.137 7.023 -5.298
3.415062374999998 0.078 -0.146 0.974 6.84 6.931 -6.588
3.422530582999997 0.064 -0.128 0.984 4.992 5.748 -1.969
3.4348997909999994 0.051 -0.089 0.958 1.855 4.504 1.595
3.4422878330000017 0.054 -0.092 0.972 1.763 5.771 2.573
3.4546349159999963 0.048 -0.095 0.971 -1.687 6.0 5.191
3.462128958000001 0.021 -0.111 0.964 -0.145 6.412 5.687
3.474358207999998 0.014 -0.14 0.964 -0.389 4.931 4.641
3.4818450409999997 0.01 -0.107 0.966 0.542 3.153 2.031
3.4941460410000005 0.005 -0.146 0.953 1.252 0.985 -0.664
3.506526665999999 0.01 -0.116 0.952 0.656 -0.992 0.397
3.513560333000001 0.026 -0.101 0.969 0.344 -1.206 0.191
3.5258818329999997 0.042 -0.06 0.955 -2.29 -2.748 0.863
3.5332330410000026 0.08 -0.08 0.969 -4.092 -1.779 1.084
3.545482665999998 0.104 -0.098 0.984 -3.756 0.649 2.191
3.552971915999997 0.113 -0.116 0.983 -2.626 2.481 2.901
3.565246416000001 0.096 -0.118 0.978 -3.023 2.748 3.328
3.572764333000002 0.099 -0.14 0.982 -2.443 3.282 2.74
3.5850382499999967 0.07 -0.114 0.969 -4.542 3.305 3.855
3.592283666 0.04 -0.095 0.972 -4.718 3.359 4.489
3.604533625000002 0.024 -0.074 0.956 -7.901 0.435 3.542
3.6121075829999967 0.019 -0.092 0.971 -8.023 -0.267 1.374
3.6241284999999976 0.04 -0.119 0.976 -7.13 -0.16 -1.649
3.6364239580000017 0.046 -0.142 0.966 -3.099 0.527 -3.122
3.6436677080000024 0.057 -0.175 0.982 -1.466 0.832 -3.046
3.655918624999998 0.053 -0.145 0.981 0.389 0.87 -0.878
3.6632630000000006 0.033 -0.149 0.979 1.977 -0.695 -4.443
3.675453249999997 0.045 -0.141 0.987 1.901 -1.87 -1.344
3.6827715829999974 0.042 -0.095 0.956 -0.954 -3.382 -1.534
3.695068374999998 0.061 -0.117 0.974 0.931 -2.779 -4.298
3.702372416000003 0.055 -0.12 0.973 -0.084 -2.282 -2.954
3.714371 0.039 -0.1 0.96 -2.145 -2.817 -1.374
3.726350165999996 0.033 -0.098 0.963 -1.435 -3.084 -4.336
3.733664666000003 0.039 -0.121 0.972 -2.053 -3.015 -2.374
3.7459448749999993 0.068 -0.136 0.992 0.427 -1.344 -0.443
3.7534743329999998 0.093 -0.121 0.982 0.107 0.885 4.397
3.7657143329999982 0.096 -0.125 0.993 1.595 3.916 6.84
3.7730267909999995 0.072 -0.145 1.001 1.359 5.504 10.198
3.7855250409999996 0.044 -0.11 0.975 0.214 4.977 10.405
3.7927057079999997 0.018 -0.068 0.958 -2.015 1.573 5.0
3.8050322499999965 0.02 -0.087 0.967 -3.13 -0.45 -0.634
3.8123537909999996 0.023 -0.135 0.96 -0.603 -1.191 -4.275
3.8246023330000014 0.016 -0.13 0.962 0.015 -1.58 -4.809
3.8318846660000005 0.023 -0.133 0.969 2.71 -1.611 -6.557
3.844188291000002 0.043 -0.129 0.973 4.473 -1.885 -2.809
3.8561410410000008 0.04 -0.101 0.958 3.366 -3.0 -2.328
3.8636989580000005 0.074 -0.093 0.986 3.992 -2.511 -1.916
3.875681333000003 0.083 -0.1 0.978 2.664 -2.305 -0.901
3.883244624999996 0.084 -0.099 0.987 3.298 -0.588 -1.855
3.895242582999998 0.069 -0.096 0.971 1.947 -0.328 -1.916
3.9027893749999976 0.064 -0.102 0.982 1.031 0.0 -0.916
3.915026540999996 0.046 -0.116 0.974 0.542 -0.336 0.252
3.922541166000002 0.047 -0.117 0.974 0.748 -0.359 0.687
3.934727166000002 0.057 -0.125 0.985 1.015 -0.397 2.527
3.941770124999998 0.062 -0.144 0.975 2.977 -0.229 0.221
3.954656749999998 0.079 -0.158 0.995 3.008 0.092 2.756
3.962028291000003 0.055 -0.135 0.969 2.878 0.458 5.901
3.9743617909999998 0.033 -0.11 0.964 1.863 -1.008 6.847
3.9803347499999973 0.032 -0.084 0.964 0.198 -2.672 7.031
3.993883457999999 0.028 -0.108 0.97 0.038 -4.008 3.847
4.006133040999998 0.057 -0.08 0.962 -0.084 -4.672 2.191
