Time AX AY AZ GX GY GZ
0.0195308750000009 0.053 -0.101 1.007 -0.313 2.626 -2.664
0.0320899170000004 0.056 -0.101 1.016 -0.634 3.534 -2.176
0.0390815000000017 0.048 -0.093 1.009 -1.084 1.969 -1.107
0.0530734170000002 0.065 -0.092 1.005 -0.443 -2.748 -0.046
0.0586455000000043 0.092 -0.078 1.009 -0.397 -3.588 1.29
0.071179083000004 0.099 -0.058 1.035 -2.084 -0.313 1.885
0.0781532080000033 0.086 -0.048 1.033 -4.992 5.244 1.863
0.0905400420000006 0.059 -0.063 1.003 -6.786 8.977 1.023
0.0976583330000053 0.038 -0.086 0.967 -6.557 8.252 0.664
0.1102106250000005 0.035 -0.101 0.952 -5.611 2.901 1.321
0.1177986670000024 0.031 -0.112 0.936 -2.664 -1.634 2.45
0.1300388750000038 0.04 -0.098 0.966 -0.939 -4.45 2.038
0.1420338750000027 0.06 -0.08 1.016 0.863 -4.107 0.496
0.1496165420000039 0.094 -0.068 1.028 1.565 -1.496 0.977
0.1615827500000008 0.105 -0.05 1.046 0.198 2.779 1.687
0.1688705000000041 0.08 -0.042 1.028 -2.26 5.122 2.634
0.1811457920000023 0.054 -0.046 1.011 -4.939 2.939 3.344
0.1886650420000037 0.05 -0.049 0.983 -7.0 -2.237 3.878
0.2008802500000044 0.046 -0.049 1.03 -8.504 -4.519 3.588
0.2082175419999998 0.064 -0.084 0.971 -9.282 -4.328 3.916
0.2204135830000027 0.032 -0.09 0.974 -9.42 -1.634 3.229
0.2279349580000058 0.022 -0.091 0.97 -11.023 -0.16 1.176
0.2399966669999997 0.028 -0.114 0.939 -10.16 -0.947 0.74
0.2522387500000036 0.005 -0.122 0.937 -8.45 0.015 0.687
0.259542500000002 -0.037 -0.103 0.936 -4.496 2.443 -2.664
0.2718900830000024 -0.019 -0.125 0.923 -1.489 0.13 -3.153
0.2793322919999994 -0.004 -0.137 0.933 -0.626 -6.0 -3.405
0.2913500420000048 0.013 -0.1 0.959 -0.542 -7.092 -4.588
0.2988682080000018 0.031 -0.102 0.967 -0.603 -4.336 -6.229
0.3109041250000004 0.052 -0.122 1.003 -3.901 -0.275 -6.656
0.3181980420000059 0.047 -0.142 0.958 -4.473 2.427 -7.427
0.3305853750000054 0.031 -0.157 0.96 -4.496 3.573 -7.771
0.3377543329999994 0.021 -0.156 0.957 -5.145 0.298 -6.863
0.3498328330000007 0.015 -0.151 0.954 -6.29 -5.153 -6.588
0.3620570420000035 0.039 -0.156 0.965 -8.687 -7.305 -5.153
0.3693587919999999 0.066 -0.137 0.969 -11.107 -5.748 -4.557
0.3814131250000017 0.058 -0.155 0.977 -12.313 1.321 -4.588
0.3887667080000057 0.035 -0.191 0.961 -10.809 8.656 -4.542
0.4006067080000051 -0.016 -0.208 0.934 -8.992 9.282 -6.16
0.4078756670000061 -0.04 -0.234 0.905 -5.985 2.382 -6.794
0.4202925420000056 -0.028 -0.24 0.929 -2.977 -5.069 -6.695
0.4272499580000044 0.01 -0.218 0.945 -1.893 -8.534 -7.092
0.4397416250000034 0.035 -0.2 0.969 -2.489 -5.824 -7.282
0.4519496250000046 0.041 -0.198 0.968 -5.756 0.076 -5.969
0.4591385000000016 0.027 -0.191 0.965 -8.504 5.145 -4.962
0.4712093750000008 0.002 -0.204 0.975 -10.237 8.267 -5.168
0.4783649580000002 -0.019 -0.233 0.897 -8.076 7.229 -5.763
0.4907563330000002 -0.023 -0.261 0.946 -2.382 6.183 -8.183
0.4977250420000061 -0.029 -0.248 0.93 2.305 4.267 -11.214
0.5100392500000055 0.025 -0.235 0.942 5.87 -0.145 -12.878
0.5223500829999992 0.112 -0.203 0.989 6.733 -0.733 -12.275
0.5291126250000033 0.133 -0.185 1.047 5.153 9.214 -10.863
0.541155792000005 0.098 -0.17 1.055 1.931 21.656 -10.038
0.5481034170000001 0.044 -0.182 1.005 -2.725 22.092 -7.672
0.5602422920000052 -0.001 -0.212 0.971 -6.489 11.145 -4.443
0.5674654170000011 -0.031 -0.243 0.938 -7.649 -3.947 -2.099
0.5800485420000001 0.018 -0.237 0.917 -5.321 -18.29 1.252
0.5922075000000007 0.145 -0.181 1.013 -6.435 -22.58 -0.069
0.5992197919999995 0.239 -0.133 1.073 -8.344 -10.931 0.275
0.6114877920000055 0.237 -0.143 1.151 -10.809 28.573 2.382
0.6185030830000002 0.089 -0.138 1.074 -12.16 52.931 -0.366
0.6307515000000024 -0.022 -0.191 0.981 -11.573 48.954 1.145
0.637740958000002 -0.11 -0.215 0.914 -6.618 20.55 0.748
0.6502522500000012 -0.091 -0.229 0.934 1.092 -8.649 -0.313
0.6572554580000016 -0.081 -0.224 0.958 6.664 -23.328 -1.656
0.6695282920000025 0.052 -0.175 0.947 5.817 -41.16 3.74
0.6821706250000048 0.262 -0.154 1.084 0.634 -42.992 9.611
0.6890771670000007 0.263 -0.069 1.171 -9.458 -13.176 9.176
0.7013433750000004 0.198 -0.108 1.191 -17.954 37.634 6.405
0.7083011250000055 -0.0 -0.149 1.021 -22.634 62.634 2.321
0.7204876670000004 -0.113 -0.261 0.855 -20.473 50.145 2.046
0.7276911249999998 -0.169 -0.317 0.746 -10.924 13.038 4.557
0.7401331670000033 -0.198 -0.299 0.759 2.298 -24.824 -0.527
0.7522386670000003 -0.087 -0.296 0.829 13.489 -48.863 -3.542
0.7591823750000017 0.103 -0.237 0.881 20.382 -62.382 -1.267
0.7713296670000034 0.235 -0.166 1.022 18.931 -53.664 2.718
0.7787236250000049 0.267 -0.064 1.163 9.145 -16.328 2.115
0.790614583 0.196 -0.046 1.173 -3.061 26.176 0.313
0.7977033750000047 0.072 -0.104 1.072 -10.939 47.29 -2.809
0.8098092920000042 -0.014 -0.199 0.945 -14.0 39.084 -0.527
0.8220231250000012 -0.053 -0.236 0.847 -11.443 12.962 3.733
0.8293226669999996 -0.061 -0.216 0.855 -4.58 -11.42 3.802
0.8414817080000034 0.032 -0.215 0.903 -0.763 -20.71 4.023
0.8487338750000006 0.098 -0.19 0.961 -1.153 -16.779 7.16
0.8612457080000055 0.089 -0.114 1.009 -4.794 -4.008 4.702
0.8682535000000016 0.078 -0.118 1.033 -9.794 15.84 2.069
0.8803287080000004 0.023 -0.144 1.003 -11.802 30.977 -0.695
0.8873751250000055 -0.036 -0.188 0.942 -10.924 34.771 -3.145
0.8996416670000045 -0.047 -0.21 0.869 -6.45 25.87 -3.878
0.9120349579999996 -0.025 -0.216 0.864 -0.26 11.916 -3.519
0.918847458000002 0.027 -0.206 0.892 4.359 3.489 -1.427
0.9310759170000013 0.042 -0.169 0.931 6.718 2.947 -0.489
0.9385340000000042 0.042 -0.126 0.989 6.863 8.55 -2.702
0.9506003750000004 0.019 -0.103 0.997 4.916 14.802 -7.061
0.962270083 0.014 -0.143 0.979 2.656 20.58 -7.695
0.9695487920000048 -0.015 -0.165 0.964 3.374 18.748 -6.962
0.981610792000005 -0.054 -0.15 0.974 3.0 12.847 -8.511
0.988930333000006 -0.061 -0.155 0.96 1.885 7.443 -10.153
1.000914250000001 -0.027 -0.177 0.952 1.847 4.13 -10.641
1.007663750000006 0.009 -0.195 0.927 4.504 4.473 -9.115
1.0199064580000012 0.006 -0.183 0.942 9.733 6.908 -8.718
1.0319856670000007 0.01 -0.139 0.97 15.847 7.237 -9.313
1.0386580420000016 -0.023 -0.087 1.008 16.794 8.962 -11.634
1.050909875000002 -0.044 -0.082 1.052 14.137 10.435 -14.908
1.0576682920000025 -0.021 -0.109 1.053 8.954 9.443 -13.229
1.0699610830000026 -0.066 -0.12 1.023 3.794 7.832 -11.58
1.0822630830000008 -0.066 -0.135 1.007 1.084 5.847 -13.084
1.0892010000000028 -0.041 -0.155 0.984 1.42 4.26 -14.275
1.1014689580000052 -0.02 -0.16 0.963 3.817 3.672 -12.901
1.1084556670000012 -0.03 -0.144 0.957 7.573 1.336 -12.015
1.120772500000001 -0.036 -0.109 0.969 11.382 -1.527 -13.053
1.1274992080000033 -0.054 -0.086 0.972 13.282 -4.282 -15.412
1.1398210000000049 -0.094 -0.075 0.841 12.374 -20.931 -16.672
1.1517538330000008 0.004 -0.154 0.987 15.099 -23.618 -15.084
1.158821292000006 -0.014 -0.116 0.983 12.74 -20.992 -15.45
1.170896875000004 0.039 -0.128 1.043 11.809 -6.634 -16.931
1.1779861670000005 0.049 -0.089 1.042 9.947 9.389 -14.847
1.189831667 0.036 -0.086 1.022 10.359 14.718 -14.183
1.2017610000000047 0.036 -0.095 0.998 10.977 19.137 -11.366
1.2088650829999992 0.026 -0.077 0.974 12.786 12.214 -7.649
1.2206351670000046 0.007 -0.066 1.002 15.42 6.893 -5.817
1.2279713750000028 -0.016 -0.064 1.048 17.336 8.198 -6.55
1.2400530000000032 -0.047 -0.029 1.04 17.931 7.733 -12.786
1.2517721670000057 0.007 -0.039 1.055 18.237 6.611 -17.214
1.258847375000002 0.059 -0.082 1.039 19.252 4.687 -13.885
1.2709462500000015 0.087 -0.119 1.044 19.328 2.542 -5.053
1.2782132920000038 0.047 -0.068 1.078 14.244 -0.137 1.145
1.2902927920000025 0.033 -0.042 1.075 7.412 1.084 4.137
1.3022909170000003 0.018 -0.057 1.066 3.046 7.145 7.687
1.3097952500000003 -0.014 -0.082 1.072 -0.733 15.725 8.031
1.321820125000002 -0.068 -0.103 1.032 -0.832 22.847 4.985
1.329093500000006 -0.095 -0.133 0.994 2.305 26.771 2.305
1.341108625000004 -0.135 -0.133 0.96 9.511 25.641 -2.435
1.3485072500000044 -0.147 -0.126 0.965 16.534 19.443 -6.687
1.360204208000006 -0.145 -0.092 0.976 21.244 10.023 -8.244
1.3722129580000058 -0.137 -0.029 1.024 21.046 0.412 -9.733
1.3795507080000036 -0.098 -0.006 1.068 18.115 -5.008 -10.229
1.3915565 -0.083 -0.001 1.093 14.511 -5.924 -11.397
1.3988923329999992 -0.039 -0.038 1.102 13.13 -0.771 -13.504
1.4106459999999998 -0.038 -0.059 1.093 13.733 8.046 -15.321
1.4177690830000031 -0.027 -0.078 1.076 15.107 15.466 -15.076
1.429822042000005 -0.044 -0.062 1.059 16.924 19.664 -13.969
1.4415861250000006 -0.053 -0.066 1.038 19.023 18.947 -12.031
1.4486489579999997 -0.076 -0.04 1.06 19.168 15.344 -9.489
1.4604539580000022 -0.135 0.052 1.087 15.573 10.611 -14.069
1.4665697080000015 -0.137 0.089 1.104 10.13 6.595 -22.008
1.4795437920000012 -0.099 0.037 1.111 5.336 5.641 -23.191
1.4916514579999998 -0.101 -0.008 1.081 1.794 3.885 -21.076
1.4988486670000043 -0.146 -0.013 1.061 -0.305 0.099 -22.969
1.5111527920000043 -0.172 -0.019 0.987 -1.237 -5.802 -27.824
1.5181521250000003 -0.166 -0.049 0.913 0.626 -15.557 -29.122
1.530184833 -0.124 -0.072 0.827 4.435 -30.252 -28.901
1.5422512080000033 -0.074 -0.021 0.849 8.504 -43.809 -29.252
1.5494037500000033 -0.027 0.059 0.915 10.382 -44.069 -34.756
1.5610978330000052 0.077 0.081 0.984 12.282 -27.878 -39.534
1.5682541669999992 0.129 0.062 1.033 13.725 0.008 -38.099
1.5800965419999995 0.1 0.026 1.017 14.756 20.725 -31.916
1.5915521670000032 0.011 0.021 0.986 14.565 27.13 -29.214
1.598679208 -0.084 0.029 0.97 13.405 22.824 -28.092
1.6104934170000007 -0.154 0.009 0.926 10.992 10.069 -26.435
1.6177547500000031 -0.213 0.024 0.913 6.802 -5.954 -27.382
1.6295454170000028 -0.228 0.082 0.905 3.214 -19.511 -38.237
1.6415798330000015 -0.12 0.041 0.933 5.168 -24.885 -44.725
1.6486537080000048 -0.042 -0.039 0.984 10.504 -13.916 -44.71
1.660698833000005 -0.049 -0.038 0.998 16.588 0.908 -43.641
1.667699208000002 -0.042 0.012 0.975 22.733 6.137 -46.344
1.679506458000006 -0.035 0.051 0.995 23.969 5.313 -46.809
1.6915654579999997 -0.055 0.069 1.022 23.046 8.542 -43.992
1.6984810830000043 -0.127 0.118 1.048 11.481 11.137 -39.962
1.7104402500000049 -0.223 0.192 1.022 0.916 13.672 -45.267
1.722233917000004 -0.184 0.141 0.941 0.305 6.55 -50.916
1.7295675000000017 -0.188 0.107 0.983 4.824 5.344 -53.817
1.7413565420000054 -0.198 0.135 1.004 13.13 9.336 -60.679
1.7484471250000055 -0.189 0.179 1.01 23.099 11.031 -71.74
1.7602602500000015 -0.159 0.174 0.948 33.595 3.817 -79.992
1.7720342920000007 -0.021 0.135 0.847 42.214 -24.725 -78.008
1.7791423749999993 0.159 0.197 0.894 43.542 -65.992 -65.557
1.790936000000002 0.317 0.309 1.012 33.595 -94.214 -54.779
1.797971375000003 0.473 0.302 1.15 20.084 -87.802 -43.305
1.809770708000002 0.546 0.225 1.224 2.015 -54.687 -22.733
1.8218734170000064 0.462 0.221 1.199 -14.427 -14.733 -5.664
1.8289362920000016 0.324 0.18 1.067 -22.718 10.84 2.023
1.8410537500000004 0.191 0.126 0.961 -19.939 28.084 4.962
1.848079042000002 0.129 0.062 0.857 -9.931 32.244 8.443
1.8601635420000024 0.063 0.079 0.817 0.298 25.618 8.855
1.8718575420000008 0.071 0.078 0.882 7.985 16.832 12.069
1.8789350830000016 0.014 0.086 0.997 7.634 16.55 17.695
1.8908624580000009 -0.046 0.115 1.039 3.832 22.313 17.351
1.8981022080000045 -0.061 0.113 1.008 -0.16 19.992 16.008
1.910322042000004 -0.094 0.104 0.983 -2.74 13.779 14.351
1.922399042000002 -0.098 0.071 0.966 -1.901 6.542 12.267
1.9296248330000056 -0.081 0.044 0.951 1.191 -0.534 10.832
1.9419000420000003 -0.058 0.068 0.934 3.214 -6.527 9.573
1.9491279580000056 -0.091 0.106 0.996 1.321 -7.008 9.74
1.9615385000000032 -0.1 0.091 0.986 0.229 -4.947 6.061
1.968737708000006 -0.089 0.044 0.962 2.183 -5.214 3.496
1.981020542000003 -0.038 0.001 0.948 6.069 -4.84 4.344
1.9882160830000049 -0.009 -0.016 0.988 9.672 -6.931 5.351
2.0005165419999997 0.013 0.006 1.065 8.84 -3.763 5.702
2.006465625000004 0.015 0.046 1.087 4.878 2.16 7.008
2.0195218750000024 0.019 0.059 1.11 1.168 5.641 9.092
2.0321609580000057 -0.025 0.075 1.083 -4.695 8.855 9.718
2.039001542000001 -0.072 0.065 1.033 -9.809 10.924 9.687
2.050982917000006 -0.109 0.036 0.993 -10.344 7.252 7.977
2.058257791999999 -0.109 0.011 0.938 -7.771 -1.817 4.702
2.070664750000006 -0.113 0.002 0.943 -4.71 -8.557 2.137
2.0778784580000007 -0.062 -0.009 0.943 -0.649 -11.771 1.573
2.0902117080000053 -0.046 -0.001 0.979 2.466 -12.656 0.519
2.097175167000003 -0.024 0.013 1.001 4.626 -11.954 0.221
2.109701375 -0.006 0.034 1.015 4.679 -12.687 0.229
2.122007625000002 -0.006 0.054 1.053 0.435 -13.595 0.29
2.128971875000005 0.03 0.056 1.042 -3.924 -12.153 1.366
2.1414827500000015 0.035 0.026 1.027 -5.84 -6.954 2.229
2.1484515830000035 0.033 0.004 0.991 -5.947 -1.779 2.58
2.1607227080000015 0.033 0.001 0.946 -4.366 1.176 4.618
2.1680178330000004 0.014 -0.008 0.938 -0.672 2.664 5.748
2.1802573750000036 -0.004 -0.005 0.938 1.992 1.977 5.992
2.187407125 -0.024 0.007 0.961 1.794 1.198 6.847
2.1998037920000044 -0.046 0.022 0.995 0.458 0.588 5.366
2.212014500000002 -0.026 0.012 1.016 0.198 -0.481 3.069
2.219307417000003 -0.023 0.014 1.027 -0.328 0.641 1.489
2.231634917000001 -0.009 0.016 1.019 -1.817 2.687 0.382
2.238859292000001 0.012 0.005 0.99 -1.863 0.527 1.229
2.251133750000001 0.005 0.004 0.984 -2.046 -2.679 2.382
2.2586905420000036 0.017 -0.004 0.98 -2.557 -3.893 4.16
2.270903750000002 0.027 -0.008 0.966 -1.511 -4.489 5.565
2.278215542000005 0.029 -0.008 0.982 -0.443 -2.336 6.382
2.2904384170000043 0.026 -0.009 1.012 1.191 2.947 6.298
2.297782000000005 -0.007 0.005 1.004 1.115 5.557 4.916
2.3098353330000023 -0.015 0.021 0.99 1.427 4.565 3.145
2.3220632499999994 -0.004 0.017 0.98 1.191 -2.305 3.351
2.3292705420000033 -0.002 0.02 0.995 -0.504 -6.725 4.046
2.341543083000005 0.01 0.022 1.01 -2.267 -4.992 4.237
2.349143750000003 -0.002 0.017 0.999 -3.458 -1.969 3.481
2.3612517920000045 -0.033 0.001 1.001 -3.29 3.504 2.176
2.368727 -0.059 -0.017 0.981 -2.74 2.16 0.748
2.380893833000002 -0.058 -0.012 0.979 -1.634 -2.053 0.695
2.3884544170000055 -0.039 0.001 0.975 0.634 -8.244 0.031
2.4002542500000033 0.008 0.005 0.988 2.099 -12.16 -1.061
2.4062924999999993 0.038 0.009 0.995 1.023 -9.565 0.214
2.4197939579999996 0.012 0.016 1.003 -0.634 -2.916 1.58
2.432066208000002 -0.011 0.0 0.969 -0.42 1.656 1.122
2.439295292000004 -0.032 -0.009 0.969 0.29 0.672 0.382
2.451548833000004 -0.052 -0.0 0.984 1.13 -1.855 -1.817
2.458869042000003 -0.005 0.007 0.983 1.664 -5.603 -2.924
2.4709144999999992 0.019 0.016 1.008 0.641 -5.511 -2.122
2.477921000000002 0.03 0.023 0.996 0.931 -5.191 -2.489
2.489989749999999 0.059 0.015 0.987 1.809 -6.885 -1.466
2.5022463750000057 0.062 0.003 0.997 1.664 -6.229 0.939
