Time AX AY AZ GX GY GZ
0.013736250000000894 0.011 -0.178 0.952 3.55 -3.427 4.389
0.02624087500000627 0.016 -0.169 0.943 3.527 -4.092 4.779
0.03367416700000092 0.014 -0.147 0.944 2.305 -4.389 4.382
0.045913250000005235 0.011 -0.154 0.92 0.649 -5.916 5.573
0.05337616700000325 0.033 -0.142 0.919 0.214 -4.939 7.931
0.06577666700000151 0.013 -0.156 0.916 0.397 -4.534 8.275
0.0729796250000021 0.0 -0.167 0.907 -1.282 -6.053 10.13
0.08518079200000273 -0.013 -0.161 0.89 -2.954 -6.885 10.969
0.09223883400000688 -0.024 -0.17 0.881 -4.26 -9.534 10.427
0.10427300000000628 -0.006 -0.175 0.896 -5.473 -11.046 15.672
0.11626875000000325 -0.004 -0.199 0.891 -4.252 -12.321 18.359
0.12329000000000434 -0.004 -0.204 0.91 -3.489 -10.924 20.802
0.13535191700000127 -0.002 -0.22 0.894 -7.649 -12.687 22.313
0.14245270900000406 0.003 -0.202 0.894 -9.756 -11.115 23.221
0.15448329200000188 -0.019 -0.196 0.854 -13.145 -13.504 24.122
0.16622041700000523 -0.024 -0.158 0.849 -17.122 -14.511 27.466
0.17333266700000394 -0.024 -0.157 0.85 -14.985 -11.809 24.397
0.18537033400000524 -0.005 -0.208 0.827 -18.725 -9.634 14.427
0.19245908400000644 -0.078 -0.169 0.885 -19.122 -13.969 23.588
0.20428445900000014 -0.077 -0.188 0.886 -18.679 -17.008 18.679
0.2160787500000012 -0.077 -0.184 0.89 -20.069 -19.412 22.176
0.22308920900000118 -0.068 -0.169 0.898 -23.015 -21.771 23.87
0.23526833400000413 -0.049 -0.145 0.923 -25.924 -24.473 25.389
0.2422576250000006 -0.015 -0.131 0.96 -28.374 -25.443 26.611
0.2540770840000022 0.026 -0.116 0.992 -30.359 -25.954 26.511
0.2661588750000021 0.057 -0.097 1.045 -33.168 -25.42 25.344
0.2731636670000057 0.079 -0.128 1.106 -34.351 -23.427 22.618
0.285161875 0.071 -0.166 1.129 -34.183 -20.878 21.71
0.2922969590000051 0.041 -0.216 1.152 -34.473 -22.603 21.061
0.30437829200000266 0.052 -0.245 1.173 -34.504 -26.542 20.42
0.3163786250000058 0.077 -0.283 1.213 -31.534 -26.076 20.725
0.32340370900000437 0.101 -0.307 1.24 -29.023 -27.84 20.748
0.3354560840000005 0.125 -0.296 1.289 -27.427 -28.153 16.565
0.3426396250000039 0.182 -0.327 1.294 -21.168 -26.13 13.817
0.354520167000004 0.227 -0.303 1.289 -20.939 -30.641 14.069
0.36645262500000086 0.254 -0.313 1.317 -15.649 -32.168 7.985
0.3737364170000035 0.301 -0.313 1.355 -8.603 -31.809 0.84
0.3858027090000036 0.337 -0.325 1.364 -3.244 -31.069 -2.473
0.3930628340000055 0.362 -0.365 1.369 2.634 -30.176 -7.359
0.4051451670000006 0.414 -0.376 1.336 7.954 -27.115 -7.802
0.41251375000000223 0.459 -0.417 1.342 15.916 -23.969 -2.122
0.42443762500000304 0.476 -0.405 1.329 23.252 -19.733 4.595
0.4365149170000038 0.494 -0.385 1.286 26.229 -16.015 4.122
0.4438104170000017 0.521 -0.367 1.274 26.664 -15.298 2.405
0.45602625000000074 0.558 -0.344 1.233 32.435 -9.336 -2.153
0.46337800000000584 0.582 -0.323 1.213 36.985 -4.229 -5.824
0.47532300000000305 0.586 -0.31 1.177 41.397 1.977 -9.099
0.48263637500000556 0.585 -0.279 1.147 45.405 9.779 -15.977
0.49468379200000356 0.57 -0.267 1.095 45.527 17.58 -17.008
0.5021363750000063 0.529 -0.272 1.056 48.542 22.656 -20.847
0.5140136670000004 0.514 -0.241 1.037 47.931 28.298 -19.74
0.5260321670000039 0.488 -0.217 1.002 46.374 35.198 -21.031
0.5333789170000003 0.451 -0.201 0.979 45.855 35.176 -26.328
0.5453624170000069 0.425 -0.174 0.929 45.359 37.321 -30.244
0.5524167090000063 0.39 -0.172 0.888 42.076 38.695 -34.702
0.5644007920000007 0.384 -0.172 0.894 40.313 39.099 -36.985
0.5764522920000061 0.354 -0.16 0.848 35.534 39.794 -39.229
0.5837303750000018 0.321 -0.166 0.801 28.634 39.275 -45.901
0.5958005420000063 0.275 -0.157 0.746 26.832 41.183 -53.046
0.6031365420000014 0.242 -0.202 0.729 27.573 38.008 -57.282
0.6152511250000003 0.206 -0.213 0.71 26.718 36.443 -57.145
0.6221931250000026 0.158 -0.231 0.663 26.42 33.336 -57.473
0.6342600420000011 0.12 -0.244 0.638 26.359 28.779 -58.893
0.646225084000001 0.098 -0.242 0.637 25.229 23.87 -55.168
0.6535529590000024 0.089 -0.21 0.611 23.481 21.977 -55.664
0.6655866670000066 0.088 -0.171 0.594 18.008 17.931 -55.336
0.6728945000000053 0.087 -0.167 0.594 15.084 14.573 -57.519
0.684927542000004 0.078 -0.142 0.593 15.076 13.565 -59.168
0.6919377920000045 0.054 -0.139 0.59 10.855 10.481 -62.267
0.7042715000000044 0.033 -0.145 0.58 7.901 7.511 -66.481
0.7164901250000071 0.017 -0.165 0.602 6.145 5.863 -67.344
0.7237535000000008 0.008 -0.19 0.602 5.611 6.45 -64.198
0.7357492920000013 -0.009 -0.201 0.617 4.786 5.634 -55.756
0.7430927920000059 -0.039 -0.176 0.63 0.466 4.809 -46.328
0.7551071250000021 -0.078 -0.177 0.649 -2.588 5.847 -44.092
0.7624452920000024 -0.112 -0.168 0.63 -6.389 3.573 -44.046
0.7741692920000034 -0.134 -0.154 0.625 -11.405 -0.473 -43.855
0.7862011250000052 -0.149 -0.163 0.635 -12.031 -5.405 -40.962
0.7931897090000035 -0.132 -0.182 0.665 -11.115 -9.557 -41.45
0.8050915000000032 -0.115 -0.17 0.707 -9.611 -9.824 -43.947
0.8122029590000039 -0.11 -0.143 0.751 -10.71 -8.969 -37.183
0.8242336670000014 -0.127 -0.192 0.784 -13.344 -8.878 -33.053
0.8360703340000057 -0.153 -0.174 0.801 -18.534 -6.992 -22.107
0.8431458750000047 -0.179 -0.159 0.763 -23.885 -6.84 -15.58
0.8548963750000027 -0.218 -0.163 0.786 -28.412 -8.023 -19.191
0.8619916250000017 -0.231 -0.173 0.795 -27.511 -13.527 -18.031
0.8737719590000026 -0.237 -0.195 0.792 -33.527 -13.145 -19.206
0.8855530840000014 -0.243 -0.188 0.82 -39.954 -15.275 -13.626
0.8926610420000003 -0.247 -0.187 0.87 -40.824 -17.321 -19.351
0.9044473340000039 -0.221 -0.164 0.932 -45.84 -18.45 -18.405
0.9162319170000046 -0.206 -0.159 0.978 -48.969 -19.641 -13.092
0.9230596250000005 -0.167 -0.179 1.006 -47.092 -20.863 -13.573
0.9348512090000014 -0.132 -0.202 1.028 -45.687 -22.374 -12.252
0.941913250000006 -0.109 -0.235 1.115 -44.855 -22.878 -10.954
0.9539879170000063 -0.081 -0.253 1.119 -50.58 -7.458 -8.214
0.9660060840000071 -0.109 -0.268 1.189 -51.748 -7.031 2.832
0.9730444590000005 -0.095 -0.256 1.207 -50.802 -6.74 10.885
0.9851427500000014 -0.119 -0.251 1.201 -56.153 -5.244 21.359
0.9922122500000015 -0.129 -0.251 1.183 -59.427 -1.565 26.237
1.004006167 -0.125 -0.243 1.212 -57.603 0.626 31.725
1.0162676250000047 -0.114 -0.228 1.224 -54.74 0.473 35.405
1.0229506670000035 -0.102 -0.222 1.216 -52.908 -2.969 35.466
1.0354056670000062 -0.07 -0.231 1.251 -51.985 -6.198 35.427
1.0419792090000044 -0.078 -0.235 1.317 -51.847 -7.298 29.321
1.0541655000000034 -0.006 -0.227 1.269 -47.672 -7.221 31.29
1.0664897090000025 -0.006 -0.251 1.276 -43.718 -7.534 32.832
1.0731683750000016 0.02 -0.254 1.246 -36.947 -8.061 37.962
1.0854516250000046 0.019 -0.281 1.239 -29.87 -8.473 46.046
1.0924052920000022 0.028 -0.294 1.237 -22.344 -8.031 50.412
1.1047266670000013 0.048 -0.31 1.22 -14.855 -10.321 53.55
1.1114751670000018 0.06 -0.318 1.215 -8.313 -10.588 56.733
1.1237237090000036 0.071 -0.298 1.183 -1.931 -12.198 61.214
1.1361964590000042 0.083 -0.299 1.15 2.954 -15.725 63.573
1.1431981670000013 0.107 -0.287 1.159 9.542 -17.198 63.939
1.1554880000000054 0.119 -0.304 1.124 18.618 -20.695 58.962
1.1622207920000065 0.151 -0.294 1.112 26.786 -22.954 56.611
1.174528084000002 0.189 -0.291 1.123 34.473 -24.427 53.183
1.181649875000005 0.241 -0.282 1.124 39.198 -21.794 54.55
1.1938221670000004 0.28 -0.285 1.14 43.435 -17.45 56.061
1.2060717090000068 0.315 -0.27 1.135 45.183 -12.618 57.511
1.2131460420000053 0.344 -0.225 1.118 41.527 -8.214 61.939
1.2253341250000034 0.318 -0.216 1.076 38.16 -7.817 57.427
1.2327103340000036 0.314 -0.207 1.067 36.771 -6.305 49.511
1.2448911670000058 0.311 -0.206 1.058 35.206 -3.412 47.679
1.2522582920000005 0.288 -0.224 1.022 33.489 -6.214 42.389
1.2642563750000022 0.276 -0.236 1.02 32.771 -11.237 34.84
1.2762668340000047 0.278 -0.235 1.009 31.191 -13.252 31.244
1.2835995000000011 0.293 -0.274 1.038 34.603 -8.71 27.092
1.295504000000001 0.333 -0.258 1.066 34.198 -1.748 31.45
1.3027038340000061 0.333 -0.229 1.063 29.26 5.687 34.099
1.3151255840000005 0.368 -0.199 1.024 18.298 11.481 39.794
1.3225912920000056 0.294 -0.249 1.034 15.427 14.954 36.84
1.334458459000004 0.299 -0.264 0.956 13.519 18.061 26.229
1.3464744590000066 0.277 -0.274 0.969 11.588 14.878 22.802
1.3539869170000003 0.273 -0.266 0.96 12.321 13.626 9.954
1.3661455420000053 0.273 -0.279 0.941 11.45 12.504 5.71
1.3735508340000067 0.24 -0.298 0.927 9.534 12.244 0.847
1.3857895840000012 0.229 -0.307 0.903 7.214 12.0 -2.13
1.393067084000002 0.229 -0.301 0.866 3.947 11.718 3.389
1.4055641670000014 0.212 -0.294 0.866 1.908 8.718 7.809
1.4128390000000053 0.201 -0.289 0.864 1.305 6.733 10.924
1.425337459000005 0.186 -0.288 0.843 2.847 5.702 5.962
1.432925417000007 0.185 -0.269 0.838 3.519 4.038 2.458
1.445199125000002 0.156 -0.256 0.829 4.519 4.084 -2.26
1.4524787920000009 0.168 -0.216 0.846 3.55 6.718 -1.611
1.464637959000001 0.164 -0.233 0.857 4.382 8.092 -2.992
1.4722283750000003 0.117 -0.199 0.84 2.832 10.26 -1.046
1.484182875000002 0.094 -0.197 0.829 -0.45 6.718 -0.214
1.496450167000006 0.061 -0.21 0.819 -1.473 6.962 -1.244
1.5039608750000042 0.028 -0.233 0.808 2.84 7.443 -6.397
1.5162505420000016 0.044 -0.23 0.82 4.939 6.374 -0.931
1.5234977500000042 0.011 -0.226 0.858 -0.298 1.481 5.359
1.535725792000001 0.049 -0.231 0.86 5.214 6.137 -2.916
1.543337459000007 0.071 -0.219 0.893 5.855 5.183 -3.29
1.5555520420000022 0.078 -0.216 0.898 4.702 6.221 -0.16
1.5630643340000034 0.055 -0.217 0.915 3.641 7.229 0.603
1.5753342090000046 0.055 -0.232 0.938 4.252 10.061 -0.748
1.5826068340000035 0.046 -0.231 0.92 3.611 10.061 1.641
1.5948499170000048 0.027 -0.24 0.925 5.092 10.84 4.16
1.6025182500000028 0.017 -0.229 0.928 6.466 8.84 3.84
1.614881667000006 0.03 -0.2 0.94 5.573 7.015 2.832
1.6222007500000046 0.03 -0.196 0.959 6.45 6.672 -2.405
1.6344045420000057 0.063 -0.198 0.979 5.924 5.137 -3.42
1.6420546670000036 0.071 -0.191 0.986 5.344 5.725 -5.115
1.6542537090000025 0.085 -0.182 0.99 2.328 6.023 -4.427
1.6664572500000006 0.073 -0.191 0.987 -0.489 5.901 -4.885
1.6737407920000038 0.065 -0.187 0.991 -0.733 5.74 -5.992
1.6860601250000045 0.062 -0.206 1.002 -0.771 5.382 -4.221
1.693324459000003 0.052 -0.187 1.0 -3.176 5.74 -1.214
1.7055546670000012 0.049 -0.186 1.003 -6.221 5.687 -1.664
1.7128418340000025 0.045 -0.189 0.99 -6.443 6.069 -2.206
1.725110167000004 0.034 -0.199 0.98 -6.748 5.29 -3.198
1.7324643340000065 0.028 -0.208 0.971 -6.015 3.649 -5.008
1.7446559170000029 0.02 -0.218 0.97 -5.748 1.542 -6.55
1.7519477500000065 0.036 -0.203 0.978 -6.168 -0.321 -5.267
1.7639540420000017 0.053 -0.22 0.995 -5.382 -0.473 -2.84
1.7762252090000032 0.071 -0.203 1.011 -6.611 0.511 0.382
1.783788584000007 0.069 -0.187 1.006 -7.13 1.924 0.42
1.795767750000003 0.04 -0.202 0.993 -5.641 2.519 -1.229
1.8033580420000064 0.034 -0.196 0.985 -5.344 2.122 -0.176
1.8154071250000001 0.023 -0.198 0.965 -4.16 0.489 -1.351
1.8226650420000041 0.034 -0.206 0.973 -2.481 -0.779 -2.611
1.8349114590000042 0.044 -0.222 0.975 -0.817 -1.382 -2.969
1.8422492920000053 0.043 -0.212 0.978 -0.282 -0.847 -0.26
1.8542022090000003 0.046 -0.221 0.985 -0.786 -1.13 1.595
1.8664717090000025 0.051 -0.198 0.98 -0.084 0.45 1.954
1.874009167000004 0.04 -0.199 0.972 0.641 -0.687 0.901
1.886266084000006 0.047 -0.197 0.985 2.939 -0.13 -1.565
1.8935525840000054 0.055 -0.193 0.978 3.588 -0.985 -1.725
1.9058092500000043 0.07 -0.191 0.986 3.305 -0.489 -3.198
1.9130900840000038 0.074 -0.206 0.991 4.267 0.748 -3.496
1.9253453340000064 0.064 -0.211 0.991 4.176 1.267 -1.779
1.9329450840000035 0.063 -0.207 0.99 3.374 1.412 0.046
1.945347292000001 0.072 -0.2 1.0 2.679 2.13 2.481
1.9528616250000042 0.057 -0.206 0.976 3.573 2.061 3.122
1.9651647090000068 0.039 -0.177 0.991 2.015 0.397 4.336
1.972643459000004 0.054 -0.193 0.986 4.053 1.756 1.565
1.984890834000005 0.044 -0.196 0.985 3.786 0.214 -0.824
1.9921611250000026 0.061 -0.191 0.99 3.481 -0.252 -2.786
2.004410459000006 0.067 -0.207 0.998 3.0 -0.618 -1.504
