Time AX AY AZ GX GY GZ
0.019787000000007993 -0.114 -0.205 0.99 -5.0 -0.389 4.382
0.02701270900000452 -0.123 -0.206 0.966 -3.656 0.298 4.069
0.03915920900000458 -0.123 -0.207 0.958 -3.748 -0.885 4.634
0.05142004200000372 -0.121 -0.198 0.945 -3.534 -1.092 4.74
0.05841125000000602 -0.117 -0.193 0.948 -4.664 -1.687 5.679
0.0708563750000053 -0.126 -0.193 0.936 -6.336 -3.252 5.939
0.07826270900000054 -0.108 -0.199 0.938 -4.954 -3.87 3.046
0.09030904200000123 -0.111 -0.195 0.938 -3.015 -4.84 1.878
0.09754437499999824 -0.114 -0.208 0.929 -2.817 -6.191 0.229
0.10959095900000193 -0.115 -0.233 0.935 -2.473 -6.763 -0.412
0.121549542000011 -0.111 -0.234 0.938 -1.618 -6.916 0.0
0.1288468750000078 -0.098 -0.234 0.938 -1.191 -5.901 0.977
0.14113395900000114 -0.099 -0.237 0.938 -1.282 -4.412 3.153
0.1484040420000099 -0.112 -0.259 0.929 -0.947 -3.359 5.618
0.1604507090000027 -0.114 -0.256 0.908 4.351 -1.664 4.55
0.167571959 -0.128 -0.234 0.882 -3.664 -3.206 11.42
0.17979629200000602 -0.134 -0.256 0.85 -7.237 -1.725 9.702
0.19187204199999996 -0.169 -0.186 0.867 -4.954 -3.763 11.473
0.199119500000009 -0.14 -0.21 0.841 -6.298 -3.908 13.557
0.21119825000000958 -0.146 -0.172 0.836 -6.802 -4.954 13.031
0.21832991700000548 -0.142 -0.158 0.821 -10.473 -6.145 13.603
0.23035783400000298 -0.142 -0.15 0.827 -13.641 -9.779 13.573
0.23742275000000745 -0.125 -0.145 0.835 -14.45 -13.71 12.687
0.24918449999999837 -0.113 -0.141 0.858 -15.321 -16.863 10.924
0.2611224590000063 -0.075 -0.119 0.896 -18.252 -19.305 8.969
0.26817475 -0.042 -0.108 0.946 -21.481 -18.519 8.603
0.28036141700000883 -0.032 -0.115 0.982 -25.191 -16.26 8.382
0.2873993750000068 -0.039 -0.141 1.016 -27.954 -12.557 7.672
0.2993767920000039 -0.056 -0.153 1.022 -31.191 -9.214 8.786
0.31145979200000795 -0.075 -0.184 1.008 -34.45 -8.748 8.321
0.31867879200000004 -0.107 -0.201 1.03 -34.366 -9.0 6.137
0.3307958339999999 -0.11 -0.234 1.053 -34.679 -13.198 6.153
0.33775408400001083 -0.095 -0.257 1.087 -33.389 -16.389 4.771
0.34978800000000376 -0.066 -0.272 1.138 -32.466 -16.137 7.298
0.3615398750000054 -0.063 -0.31 1.172 -30.893 -16.718 7.947
0.3688855840000116 -0.054 -0.342 1.197 -28.023 -16.405 8.0
0.380663042000009 -0.033 -0.363 1.244 -24.718 -15.13 9.405
0.38773083400000985 -0.014 -0.382 1.259 -21.802 -14.527 11.573
0.39974637500000654 -0.008 -0.399 1.276 -17.649 -16.328 10.511
0.41185208400000306 0.014 -0.412 1.315 -9.977 -17.733 7.397
0.4190649590000106 0.052 -0.43 1.329 -2.198 -18.298 5.397
0.431421959000005 0.1 -0.469 1.363 2.924 -18.473 6.015
0.43865141700000265 0.152 -0.481 1.396 8.366 -15.947 8.603
0.450699874999998 0.186 -0.501 1.4 13.122 -13.511 11.824
0.45798141699999917 0.226 -0.482 1.438 17.855 -11.023 16.55
0.4700175420000079 0.264 -0.497 1.438 25.053 -6.977 16.237
0.4772822500000018 0.262 -0.524 1.396 32.832 -5.168 4.863
0.48961537499999963 0.259 -0.506 1.373 41.466 1.328 2.13
0.5018033750000086 0.223 -0.546 1.352 49.061 3.748 -3.679
0.5091287500000021 0.203 -0.527 1.322 54.359 9.641 -2.595
0.52141008400001 0.171 -0.512 1.261 59.435 15.221 2.58
0.5286614590000056 0.156 -0.468 1.195 61.504 21.267 8.718
0.5409022919999984 0.138 -0.396 1.09 61.847 24.412 15.763
0.548203749999999 0.114 -0.329 1.001 62.504 23.71 15.656
0.5602097090000058 0.101 -0.238 0.915 65.344 21.427 7.947
0.5674792500000052 0.106 -0.171 0.874 68.206 16.985 -1.229
0.5795528750000045 0.106 -0.131 0.838 71.473 10.565 -12.992
0.5918109170000037 0.135 -0.073 0.842 69.023 5.664 -23.595
0.5990800000000007 0.166 -0.067 0.857 63.191 4.115 -35.084
0.6111220420000052 0.191 -0.066 0.901 59.664 5.908 -44.374
0.6184041670000084 0.22 -0.079 0.911 53.252 13.733 -47.611
0.6304482090000079 0.188 -0.118 0.894 48.29 17.771 -49.435
0.6374821250000053 0.145 -0.116 0.831 44.321 19.527 -46.015
0.6495675000000034 0.091 -0.15 0.74 36.947 21.84 -45.618
0.6615564590000105 0.033 -0.144 0.668 30.58 19.237 -43.695
0.6688891670000032 -0.008 -0.147 0.611 28.931 11.763 -45.145
0.680914584000007 -0.001 -0.111 0.584 28.847 2.931 -50.344
0.6880927920000062 0.019 -0.068 0.588 28.718 -2.832 -53.779
0.6999823750000047 0.043 -0.042 0.615 23.763 -5.214 -56.55
0.7072543750000051 0.049 -0.03 0.618 17.519 -7.183 -60.221
0.7193065000000018 0.039 -0.029 0.62 13.229 -7.504 -66.55
0.731395959000011 0.03 -0.018 0.623 7.794 -7.252 -70.252
0.7386341670000007 -0.003 -0.051 0.614 4.55 -7.626 -71.634
0.7507118340000005 -0.045 -0.071 0.599 2.885 -10.023 -73.977
0.7577765000000056 -0.058 -0.095 0.6 -0.985 -12.328 -72.481
0.7695445000000092 -0.089 -0.13 0.622 -2.779 -13.855 -70.29
0.7813789169999978 -0.083 -0.152 0.627 -4.221 -16.481 -70.267
0.7884804170000024 -0.085 -0.15 0.669 -4.817 -18.313 -72.168
0.8004744170000038 -0.077 -0.132 0.687 -5.221 -18.656 -72.458
0.8075531670000089 -0.092 -0.139 0.706 -6.282 -17.58 -69.397
0.8193300000000079 -0.127 -0.156 0.697 -11.252 -17.351 -65.695
0.83115770900001 -0.143 -0.167 0.718 -13.588 -16.244 -63.824
0.8379909590000096 -0.163 -0.149 0.697 -16.664 -16.305 -58.351
0.849771000000004 -0.162 -0.141 0.707 -18.557 -17.595 -56.55
0.861600542000005 -0.167 -0.124 0.719 -24.214 -18.275 -57.366
0.8689004590000025 -0.177 -0.143 0.753 -29.26 -17.366 -57.466
0.8805664170000114 -0.203 -0.167 0.801 -25.313 -17.679 -57.611
0.8876532920000102 -0.211 -0.176 0.84 -22.71 -17.084 -58.031
0.8995882090000009 -0.218 -0.188 0.869 -23.115 -14.511 -51.328
0.9112508750000075 -0.244 -0.179 0.858 -26.893 -13.695 -44.191
0.9179907920000119 -0.283 -0.182 0.83 -30.489 -13.573 -34.214
0.9300025420000111 -0.326 -0.214 0.792 -32.023 -16.26 -27.084
0.9416920000000033 -0.36 -0.237 0.767 -32.725 -20.74 -21.221
0.9487189170000079 -0.383 -0.234 0.78 -32.832 -25.519 -17.588
0.9605659590000073 -0.344 -0.187 0.835 -32.534 -28.802 -13.672
0.9675839169999989 -0.289 -0.152 0.914 -35.55 -27.168 -9.053
0.9795153339999985 -0.255 -0.147 0.968 -46.344 -21.221 -7.038
0.9915611670000004 -0.25 -0.156 1.027 -49.84 -15.748 -5.71
0.9985990840000056 -0.252 -0.149 1.034 -42.939 -15.107 -2.198
1.0102030420000006 -0.261 -0.189 1.02 -43.977 -17.382 -0.031
1.017024125000006 -0.26 -0.222 0.997 -51.275 -19.771 1.183
1.0291261250000048 -0.266 -0.252 1.014 -56.221 -21.053 6.191
1.0412016249999994 -0.268 -0.264 1.041 -55.733 -22.534 12.824
1.047810959000003 -0.259 -0.233 1.081 -55.046 -24.389 16.725
1.0601309170000093 -0.235 -0.239 1.1 -54.168 -23.389 23.763
1.0669449590000113 -0.23 -0.241 1.116 -53.298 -25.977 24.588
1.0788453340000075 -0.195 -0.243 1.125 -54.595 -27.977 26.695
1.0908329170000002 -0.181 -0.281 1.146 -52.267 -30.031 23.305
1.0976372500000053 -0.133 -0.288 1.16 -50.252 -29.939 23.664
1.1099146250000018 -0.107 -0.266 1.178 -48.16 -27.473 27.237
1.1218311670000105 -0.108 -0.269 1.165 -45.313 -26.282 30.313
1.1286777920000048 -0.107 -0.285 1.173 -42.695 -25.595 33.55
1.140617000000006 -0.098 -0.293 1.199 -36.55 -24.244 36.901
1.147605709000004 -0.086 -0.311 1.176 -29.893 -22.969 42.656
1.1597659170000014 -0.073 -0.32 1.183 -20.679 -21.962 46.16
1.1717831250000046 -0.039 -0.321 1.213 -14.878 -17.809 52.382
1.1786459170000114 -0.004 -0.322 1.241 -11.076 -15.115 59.397
1.1909473750000075 0.021 -0.296 1.241 -4.779 -11.321 62.786
1.1980748340000105 0.018 -0.271 1.181 0.847 -7.374 69.977
1.2104377500000112 -0.007 -0.3 1.118 5.809 -9.069 70.252
1.2171975840000044 -0.001 -0.275 1.07 12.366 -13.237 68.198
1.2293502090000032 0.015 -0.266 1.044 18.641 -18.901 66.336
1.2413463339999993 0.045 -0.253 1.04 24.244 -26.573 60.115
1.2486664999999988 0.103 -0.24 1.086 29.893 -31.573 53.427
1.260789334000009 0.162 -0.238 1.137 34.855 -31.656 49.802
1.2675852920000068 0.219 -0.232 1.178 37.634 -27.954 48.87
1.2799148340000102 0.231 -0.241 1.176 38.115 -23.252 48.42
1.2918566670000047 0.229 -0.26 1.143 38.145 -20.153 47.603
1.2991758340000104 0.244 -0.269 1.112 37.053 -20.748 46.885
1.3111480419999992 0.265 -0.253 1.111 38.321 -22.649 44.061
1.3184582089999992 0.289 -0.231 1.092 41.305 -27.916 41.893
1.3304801250000082 0.313 -0.218 1.099 41.687 -29.107 34.435
1.3375032500000117 0.346 -0.198 1.08 35.649 -22.679 27.832
1.349548249999998 0.361 -0.196 1.111 26.924 -16.756 23.939
1.3615769590000042 0.365 -0.231 1.136 23.748 -14.145 26.244
1.3688237920000006 0.404 -0.235 1.132 27.137 -8.977 29.427
1.3811892089999986 0.423 -0.22 1.137 31.336 0.771 32.313
1.3884365840000044 0.419 -0.209 1.115 27.42 11.412 37.565
1.400426875000008 0.405 -0.185 1.049 16.466 17.053 41.954
1.408009333999999 0.354 -0.177 0.969 7.809 21.55 40.763
1.4199676249999982 0.32 -0.156 0.929 7.809 17.954 34.336
1.4272660419999994 0.288 -0.149 0.918 14.076 14.847 24.55
1.439567917000005 0.279 -0.155 0.927 18.87 12.321 14.031
1.4518048340000007 0.297 -0.182 0.969 21.252 9.313 6.023
1.4591002920000022 0.309 -0.218 0.996 19.931 9.244 0.702
1.4714081250000106 0.329 -0.215 1.021 16.26 13.473 -1.183
1.4787023750000117 0.303 -0.252 1.021 13.221 19.221 0.534
1.4909990000000022 0.264 -0.272 0.998 11.099 23.84 0.748
1.498172334000003 0.229 -0.274 0.965 8.0 27.908 3.824
1.510440041999999 0.184 -0.284 0.922 6.038 29.489 6.779
1.5179834999999997 0.136 -0.295 0.858 5.992 27.855 8.298
1.5302865000000025 0.096 -0.292 0.801 5.168 23.084 9.031
1.5373221669999992 0.063 -0.311 0.79 7.527 15.527 4.855
1.5495535419999982 0.071 -0.31 0.776 11.42 7.908 -1.366
1.556997917000004 0.081 -0.31 0.809 15.427 2.023 -6.511
1.5691925420000103 0.113 -0.311 0.847 16.542 0.435 -9.489
1.581562083999998 0.129 -0.312 0.872 16.183 2.74 -8.641
1.5888859590000095 0.128 -0.323 0.877 16.527 5.489 -6.702
1.6011028750000094 0.12 -0.332 0.865 16.603 9.092 -4.519
1.6084351670000103 0.089 -0.328 0.841 16.878 12.336 -1.664
1.620670375000003 0.06 -0.302 0.791 15.641 13.885 1.779
1.6279435000000007 0.041 -0.268 0.76 13.427 14.496 4.427
1.6402159170000061 0.022 -0.259 0.755 14.076 15.527 7.023
1.647484250000005 0.011 -0.228 0.771 13.374 15.58 8.939
1.6597792499999997 0.016 -0.169 0.775 12.458 17.061 7.565
1.6656513750000101 0.017 -0.125 0.777 7.725 17.366 8.809
1.6792709590000072 0.013 -0.123 0.781 5.557 17.763 5.527
1.6916551250000111 -0.003 -0.122 0.782 4.748 16.435 1.649
1.6988986249999982 -0.019 -0.148 0.783 3.0 13.183 -3.244
1.7108957920000023 -0.018 -0.181 0.814 4.183 10.427 -11.145
1.718225834000009 0.012 -0.2 0.864 1.359 9.611 -11.42
1.7304509169999989 0.032 -0.206 0.936 -2.969 12.534 -8.153
1.7377399590000095 0.036 -0.203 0.974 -8.618 17.046 -3.87
1.7497465840000075 0.028 -0.205 1.001 -13.244 21.618 -1.252
1.7617968750000017 0.014 -0.173 0.998 -16.71 25.527 1.832
1.7690986670000086 -0.021 -0.17 0.984 -20.29 26.824 2.237
1.781130791999999 -0.051 -0.167 0.983 -23.099 25.74 1.107
1.7879455420000028 -0.066 -0.191 0.981 -23.305 22.924 -1.58
1.8002506250000039 -0.069 -0.191 0.989 -22.626 19.71 -3.344
1.8073189170000035 -0.048 -0.195 1.022 -24.267 17.756 -3.939
1.8193599590000105 -0.031 -0.2 1.061 -23.977 17.496 -4.031
1.8311170420000025 -0.042 -0.223 1.062 -24.374 17.435 -2.229
1.838479417000002 -0.062 -0.262 1.043 -24.458 15.534 -1.603
1.8501961250000107 -0.06 -0.283 1.059 -24.893 12.191 -2.595
1.857510375000004 -0.066 -0.304 1.076 -21.122 11.176 1.336
1.8695783750000032 -0.075 -0.341 1.067 -18.511 7.527 2.802
1.8818093340000104 -0.062 -0.335 1.047 -15.634 5.092 3.565
1.8891723340000084 -0.035 -0.287 1.047 -14.725 3.664 6.84
1.9011200420000023 -0.011 -0.255 1.044 -13.802 2.893 9.046
1.9084161669999986 -0.01 -0.241 1.035 -10.794 1.855 7.748
1.920651417000002 0.018 -0.22 1.04 -7.496 1.29 5.603
1.928189291999999 0.026 -0.202 1.037 -3.977 0.84 3.366
1.9404351250000076 0.036 -0.193 1.042 -1.443 2.542 1.771
1.9479488340000017 0.027 -0.215 1.04 0.939 3.878 0.817
1.9602162919999984 0.006 -0.232 1.016 3.252 4.771 -0.206
1.9674802920000047 -0.01 -0.245 1.013 4.649 5.878 -0.137
1.9797616670000053 -0.044 -0.234 0.983 6.122 6.885 0.847
1.9870405420000026 -0.065 -0.253 0.951 7.13 5.45 0.466
1.9994632089999982 -0.074 -0.249 0.938 8.595 3.695 0.092
