Time AX AY AZ GX GY GZ
0.014573667000007617 -0.076 -0.156 0.975 -3.603 -1.122 2.298
0.026612667000009083 -0.084 -0.156 0.978 -3.573 -1.565 2.42
0.03360437500001012 -0.094 -0.157 0.968 -3.58 -1.924 2.71
0.045852209000003086 -0.088 -0.169 0.974 -4.176 -3.626 2.435
0.05841937499999972 -0.091 -0.172 0.98 -3.137 -4.214 1.435
0.0654120420000055 -0.083 -0.177 0.997 -2.71 -4.641 1.344
0.0778249589999973 -0.077 -0.181 1.005 -3.595 -4.237 1.214
0.08511762500000941 -0.071 -0.167 1.004 -3.817 -2.435 4.26
0.09698350000000744 -0.078 -0.173 1.003 -5.145 -1.725 5.916
0.10421670899999924 -0.095 -0.169 0.972 -5.023 -1.115 5.931
0.11657945900000755 -0.104 -0.179 0.956 -5.382 -2.336 6.656
0.12863758400000336 -0.108 -0.17 0.948 -4.122 -2.878 7.061
0.13586999999999705 -0.11 -0.179 0.927 -3.412 -3.954 7.015
0.14784600000000125 -0.098 -0.171 0.936 -2.718 -5.756 6.16
0.15516808400001025 -0.079 -0.162 0.936 -3.656 -7.374 6.832
0.1674124590000048 -0.066 -0.176 0.93 -2.916 -7.885 4.939
0.17471716699999718 -0.06 -0.158 0.933 -4.221 -7.718 6.412
0.18675970900000038 -0.058 -0.157 0.941 -5.557 -6.275 8.198
0.1940607089999986 -0.063 -0.17 0.938 -6.351 -5.16 9.725
0.20601225000000056 -0.079 -0.168 0.924 -6.611 -4.267 10.527
0.2181352500000031 -0.088 -0.16 0.906 -7.809 -5.107 11.405
0.22548716699999716 -0.082 -0.134 0.9 -9.511 -6.313 12.489
0.23725487500000497 -0.078 -0.115 0.908 -10.374 -6.595 12.229
0.2445466670000087 -0.079 -0.099 0.909 -12.618 -6.779 14.084
0.2562870840000073 -0.092 -0.115 0.91 -12.832 -6.969 11.26
0.26832266700000673 -0.079 -0.096 0.931 -15.809 -8.962 12.328
0.27539058400000727 -0.075 -0.115 0.938 -16.382 -8.183 11.435
0.2874143340000046 -0.07 -0.127 0.962 -17.939 -9.756 10.275
0.2944823750000012 -0.06 -0.152 1.021 -18.977 -10.985 9.794
0.30650804200000437 -0.05 -0.169 1.039 -18.13 -11.427 9.87
0.31860075000000165 -0.05 -0.184 1.055 -17.939 -11.397 9.939
0.3256960840000005 -0.053 -0.215 1.095 -18.885 -10.771 11.649
0.3375051670000033 -0.033 -0.225 1.145 -22.374 -11.534 17.962
0.3445475839999972 0.005 -0.264 1.162 -21.954 -11.84 20.878
0.35658345900000654 0.007 -0.213 1.204 -18.481 -12.038 25.13
0.36856216700000743 0.034 -0.262 1.21 -15.076 -5.618 32.122
0.37589491699999655 0.062 -0.28 1.227 -15.473 -7.282 28.046
0.38790537500000255 0.082 -0.273 1.266 -13.969 -4.649 34.863
0.39494625000000383 0.107 -0.276 1.264 -14.489 -3.885 40.015
0.4069413750000024 0.133 -0.288 1.285 -12.901 -3.55 39.748
0.4142641669999989 0.149 -0.302 1.325 -11.206 -6.412 36.26
0.4263240420000045 0.155 -0.317 1.351 -4.641 -6.122 29.435
0.43857262500000616 0.149 -0.346 1.358 0.802 -7.794 19.412
0.4458489170000064 0.123 -0.379 1.358 7.786 -7.412 12.107
0.4581252920000054 0.11 -0.417 1.322 15.214 -7.863 3.099
0.46538325000000214 0.154 -0.386 1.286 24.344 -8.695 -5.405
0.47738645900000165 0.155 -0.35 1.248 28.29 -3.916 -0.252
0.4849154999999996 0.177 -0.323 1.201 29.229 -0.595 2.763
0.49737691699999687 0.184 -0.294 1.145 29.145 2.817 5.557
0.504457875 0.171 -0.284 1.092 32.611 3.489 3.099
0.516776458999999 0.172 -0.271 1.04 34.206 0.595 -1.863
0.5240680840000067 0.14 -0.245 0.998 35.992 -0.534 -4.977
0.5361161250000066 0.129 -0.2 0.984 33.595 -6.763 -13.031
0.5481317920000066 0.13 -0.182 1.0 36.969 -10.71 -21.092
0.555162334000002 0.139 -0.2 1.01 41.863 -12.321 -27.947
0.5672482500000058 0.146 -0.216 1.013 44.275 -11.366 -30.427
0.5743457920000026 0.146 -0.23 0.99 41.595 -11.099 -28.84
0.586326917000008 0.148 -0.244 0.972 38.695 -10.939 -27.947
0.5980784999999997 0.144 -0.237 0.948 38.252 -10.969 -30.962
0.6054007090000084 0.167 -0.2 0.93 37.107 -9.282 -29.748
0.6174170000000032 0.17 -0.176 0.917 37.473 -7.817 -32.786
0.6247235000000018 0.164 -0.163 0.894 34.664 -5.542 -35.679
0.6367800000000017 0.153 -0.165 0.879 32.908 -3.26 -39.153
0.6440395420000016 0.135 -0.202 0.881 35.534 1.718 -41.985
0.6561212090000055 0.12 -0.21 0.844 32.107 7.099 -40.809
0.6681667090000047 0.094 -0.234 0.807 31.237 6.74 -43.115
0.6754346250000083 0.073 -0.186 0.789 33.786 5.504 -43.748
0.6876607089999993 0.07 -0.19 0.754 27.794 4.473 -38.908
0.6949727920000015 0.06 -0.162 0.726 23.947 6.137 -41.443
0.7070182500000044 0.051 -0.144 0.746 24.076 4.611 -44.855
0.7142605420000052 0.055 -0.092 0.751 23.771 4.779 -47.557
0.7263006250000075 0.049 -0.11 0.766 19.389 4.092 -50.885
0.7385787500000021 0.05 -0.112 0.768 17.031 9.992 -54.305
0.7456411250000059 0.019 -0.098 0.756 14.908 12.489 -49.015
0.7576837499999982 -0.006 -0.112 0.75 11.115 12.26 -46.656
0.7650261250000057 -0.034 -0.103 0.724 6.916 14.794 -47.374
0.7770801670000083 -0.057 -0.106 0.719 4.435 16.099 -46.321
0.7840652090000049 -0.089 -0.093 0.695 2.0 12.962 -44.29
0.7960963339999978 -0.117 -0.064 0.693 -0.237 11.947 -42.321
0.8081833749999987 -0.147 -0.057 0.674 -1.939 7.382 -41.809
0.8154655419999983 -0.167 -0.05 0.662 -3.26 2.565 -42.55
0.8273371670000103 -0.173 -0.041 0.633 -3.267 -2.412 -45.344
0.8345764999999972 -0.173 -0.029 0.615 -5.702 -8.427 -47.504
0.8464005419999978 -0.19 -0.053 0.614 -8.176 -15.832 -53.16
0.8581995840000047 -0.174 -0.06 0.665 -8.023 -20.71 -58.092
0.8651910840000028 -0.156 -0.077 0.713 -8.397 -22.756 -57.122
0.8771012090000028 -0.137 -0.073 0.775 -11.153 -22.145 -54.977
0.8840742090000049 -0.132 -0.052 0.816 -15.863 -19.168 -49.878
0.8958498750000103 -0.142 -0.082 0.842 -17.962 -16.0 -44.924
0.9077189590000074 -0.172 -0.08 0.83 -26.511 -12.634 -39.359
0.9147955840000037 -0.199 -0.092 0.804 -32.519 -11.176 -34.13
0.9265936670000059 -0.226 -0.11 0.774 -32.076 -11.954 -33.122
0.9383819589999973 -0.271 -0.155 0.78 -30.344 -14.519 -31.443
0.945226500000004 -0.285 -0.18 0.792 -29.176 -17.893 -30.656
0.956992917000008 -0.255 -0.168 0.844 -28.115 -20.412 -30.0
0.964064417000003 -0.22 -0.156 0.885 -28.679 -20.84 -26.962
0.9758515839999973 -0.19 -0.125 0.931 -29.496 -18.977 -23.664
0.987700916999998 -0.191 -0.113 0.937 -32.145 -16.321 -17.924
0.9947762090000083 -0.192 -0.098 0.949 -35.26 -14.191 -16.031
1.0065822090000012 -0.198 -0.121 0.92 -43.435 -10.702 -11.985
1.0183612090000054 -0.211 -0.17 0.908 -52.71 -7.824 -8.748
1.025554334000006 -0.208 -0.191 0.884 -47.969 -11.344 -7.649
1.0375207920000094 -0.196 -0.211 0.905 -39.542 -14.718 -9.947
1.0445983750000067 -0.163 -0.207 0.947 -39.893 -15.16 -7.55
1.0563391670000044 -0.149 -0.207 0.993 -42.42 -12.634 -1.969
1.0683456670000027 -0.162 -0.19 1.005 -43.435 -12.885 1.382
1.0754625840000074 -0.151 -0.159 1.015 -44.389 -13.374 5.137
1.0874680419999976 -0.166 -0.171 0.995 -44.626 -16.481 5.198
1.0945492090000073 -0.148 -0.171 0.997 -43.458 -21.359 1.893
1.1063748340000075 -0.104 -0.189 1.044 -38.206 -24.626 -2.794
1.118497375000004 -0.049 -0.227 1.115 -32.611 -22.931 -3.985
1.125342125000003 -0.016 -0.249 1.18 -30.824 -16.794 1.16
1.1374717500000031 -0.012 -0.283 1.238 -29.58 -8.519 9.374
1.1445188750000028 -0.035 -0.281 1.24 -31.656 -1.038 22.412
1.1566075420000033 -0.081 -0.236 1.207 -33.115 4.038 28.176
1.1686283340000045 -0.073 -0.227 1.123 -33.695 2.344 46.504
1.1759363750000063 -0.084 -0.219 1.07 -29.145 -2.0 47.015
1.1876603750000072 -0.049 -0.18 1.063 -22.557 -7.855 43.679
1.1947424170000005 -0.006 -0.175 1.103 -16.504 -11.511 38.466
1.206872500000003 0.036 -0.187 1.194 -12.649 -9.992 32.13
1.2141657500000065 0.078 -0.192 1.295 -10.588 -1.84 31.916
1.226157334000007 0.086 -0.21 1.351 -9.412 11.611 37.099
1.2384418339999996 0.022 -0.246 1.299 -9.511 22.252 46.855
1.2454152920000041 -0.047 -0.239 1.181 -11.969 27.282 57.176
1.2575165420000047 -0.122 -0.233 1.078 -10.557 24.557 61.435
1.2645172920000078 -0.145 -0.217 1.035 -5.168 16.595 57.435
1.2767560839999987 -0.113 -0.201 1.044 1.779 9.878 52.115
1.2840449589999992 -0.073 -0.195 1.062 6.0 3.817 48.13
1.296331125000009 -0.048 -0.195 1.082 7.924 -1.809 45.718
1.3081584589999977 -0.039 -0.238 1.065 10.084 -10.237 39.992
1.3154029590000107 0.013 -0.247 1.101 12.817 -16.588 35.16
1.3275250000000085 0.049 -0.228 1.087 21.015 -21.359 33.977
1.3347236670000058 0.117 -0.244 1.162 21.42 -17.145 30.206
1.3467820000000046 0.154 -0.253 1.202 19.893 -13.076 33.046
1.3540707920000017 0.183 -0.228 1.203 18.29 -8.748 37.527
1.3661039170000038 0.188 -0.229 1.184 20.519 -4.26 40.282
1.3781324589999997 0.173 -0.245 1.16 23.763 -2.0 40.206
1.385451666999998 0.178 -0.218 1.134 26.191 -2.389 39.008
1.3976810839999985 0.186 -0.217 1.099 28.618 -5.824 33.298
1.4049925839999986 0.195 -0.216 1.082 26.473 -5.779 26.565
1.4170036250000067 0.222 -0.191 1.089 21.244 -2.618 27.038
1.4242934170000012 0.235 -0.233 1.105 22.198 -1.664 27.618
1.4365932919999977 0.258 -0.233 1.128 26.282 1.947 28.832
1.448628499999998 0.275 -0.203 1.123 28.985 8.687 31.748
1.4559612919999978 0.288 -0.175 1.106 26.885 13.832 32.809
1.4681444590000012 0.263 -0.155 1.064 21.527 17.679 34.672
1.4754455000000064 0.233 -0.175 1.02 19.725 17.885 31.237
1.487430959000008 0.211 -0.184 0.993 21.847 17.527 24.55
1.494692917000009 0.189 -0.202 0.992 25.344 14.527 20.382
1.5067261670000107 0.19 -0.245 1.0 28.328 10.519 13.71
1.5142382500000053 0.189 -0.272 1.022 30.153 9.977 10.634
1.5264925840000103 0.178 -0.292 1.013 29.733 9.473 9.672
1.5385522090000023 0.174 -0.283 1.004 29.42 10.588 10.237
1.5455746250000004 0.167 -0.267 0.979 28.015 14.313 14.458
1.5578025000000082 0.14 -0.237 0.906 25.008 17.061 17.168
1.5647246249999966 0.103 -0.216 0.854 21.664 18.191 17.443
1.577248417000007 0.079 -0.202 0.813 19.779 17.45 17.198
1.5843013340000027 0.06 -0.187 0.803 19.313 14.427 13.733
1.5967642089999998 0.049 -0.198 0.785 21.16 9.954 4.71
1.603726750000007 0.051 -0.204 0.801 22.695 5.42 -2.137
1.6162698340000077 0.048 -0.232 0.817 21.687 3.74 -4.16
1.6285519999999991 0.038 -0.266 0.826 20.252 1.565 -4.489
1.6358442089999983 0.033 -0.292 0.859 19.733 0.664 -4.16
1.6483180419999997 0.05 -0.257 0.858 17.901 2.832 1.351
1.6552960839999997 0.045 -0.22 0.835 13.023 5.649 5.954
1.6680585419999971 0.035 -0.17 0.833 7.16 7.153 8.069
1.6752306249999975 0.031 -0.158 0.823 4.466 9.519 10.0
1.6875931670000028 0.025 -0.14 0.817 1.672 11.053 10.42
1.6946689589999977 0.006 -0.119 0.826 -2.595 11.069 8.954
1.7071083339999973 0.001 -0.117 0.849 -4.489 11.305 4.87
1.7145150420000022 -0.006 -0.103 0.87 -6.672 11.084 3.344
1.7264748340000011 -0.018 -0.105 0.874 -9.183 10.794 2.397
1.7384942500000022 -0.041 -0.106 0.853 -12.176 9.427 -0.458
1.7458318750000075 -0.053 -0.13 0.872 -13.649 6.832 -3.855
1.757925959000005 -0.032 -0.136 0.914 -13.893 5.359 -6.382
1.7652497500000095 -0.013 -0.126 0.959 -15.71 6.298 -5.618
1.77726100000001 -0.007 -0.128 0.988 -18.0 8.557 -4.206
1.7842237500000095 -0.021 -0.148 1.015 -19.16 11.221 -3.282
1.7963055840000095 -0.045 -0.163 1.002 -19.374 13.198 -2.313
1.8081099999999992 -0.059 -0.171 0.994 -19.832 13.336 -3.061
1.815380417 -0.074 -0.172 0.994 -18.924 13.504 -2.458
1.8272622920000003 -0.098 -0.201 0.98 -17.916 12.321 -2.695
1.8342911670000035 -0.094 -0.205 0.991 -17.924 11.962 -1.412
1.8462738340000016 -0.101 -0.208 0.999 -16.725 12.221 -0.137
1.8583560000000006 -0.102 -0.216 1.002 -15.718 11.244 0.84
1.8657080840000049 -0.09 -0.203 1.016 -12.595 10.802 2.389
1.877996667000005 -0.08 -0.187 1.016 -9.267 9.809 3.137
1.8851903750000076 -0.063 -0.173 1.014 -5.885 8.168 1.725
1.8974472090000063 -0.037 -0.149 1.016 -4.344 7.473 1.412
1.9047511250000042 -0.023 -0.148 1.024 -1.389 8.122 -0.115
1.916817542000004 -0.03 -0.148 1.019 -0.863 8.603 -0.527
1.9240474590000076 -0.042 -0.157 1.015 -0.466 9.626 0.763
1.9363057090000098 -0.061 -0.173 1.005 0.74 9.763 1.145
1.9485441670000085 -0.077 -0.176 0.986 1.618 8.832 1.282
1.9562005840000012 -0.081 -0.165 0.976 2.374 7.695 2.618
1.9683880420000008 -0.077 -0.165 0.982 3.702 6.42 2.74
1.9758707090000058 -0.079 -0.168 0.965 4.847 4.802 2.282
1.9881337090000102 -0.083 -0.152 0.967 5.855 3.046 0.695
1.9954100839999995 -0.074 -0.146 0.976 6.168 0.053 -0.489
2.0073820420000033 -0.077 -0.16 0.988 8.031 -0.687 -2.031
