Time AX AY AZ GX GY GZ
0.019705541999996967 -0.205 -0.224 0.884 -12.038 -5.672 9.824
0.02645883299999241 -0.205 -0.229 0.88 -12.565 -7.466 9.489
0.03860958299999595 -0.203 -0.239 0.895 -12.115 -7.931 9.26
0.05076654199999098 -0.203 -0.231 0.913 -12.733 -7.29 9.672
0.057841249999995625 -0.209 -0.224 0.899 -14.779 -8.725 10.786
0.06972508299999447 -0.193 -0.238 0.899 -16.092 -8.198 11.939
0.07724766699999464 -0.186 -0.251 0.917 -15.924 -5.489 13.405
0.088961458 -0.182 -0.269 0.945 -16.267 -8.214 13.344
0.1010941669999994 -0.188 -0.266 0.949 -16.282 -9.817 14.053
0.1081667499999952 -0.187 -0.281 0.981 -15.634 -10.084 14.534
0.11993891699999892 -0.189 -0.276 0.972 -15.565 -13.221 14.489
0.1269743750000032 -0.179 -0.279 0.956 -15.061 -12.794 15.618
0.13901554199999566 -0.208 -0.272 0.966 -14.786 -16.664 16.672
0.15079099999999812 -0.164 -0.265 0.993 -14.13 -21.481 18.366
0.15785266700000022 -0.095 -0.258 0.99 -13.672 -18.489 18.313
0.16966020799999626 -0.083 -0.255 1.004 -13.183 -21.626 15.756
0.1767070829999966 -0.056 -0.258 1.022 -11.45 -22.924 12.771
0.1888173749999993 -0.074 -0.245 1.044 -9.679 -21.244 11.664
0.2007931670000005 -0.098 -0.251 1.083 -8.221 -24.87 11.229
0.20790220799999304 -0.105 -0.248 1.081 -8.916 -24.786 12.718
0.2199270419999948 -0.093 -0.244 1.126 -8.969 -24.656 13.802
0.22697462499999688 -0.092 -0.253 1.165 -7.771 -23.771 14.809
0.23901041700000292 -0.055 -0.264 1.202 -6.313 -22.924 14.824
0.25078891699999417 -0.023 -0.295 1.253 -4.069 -23.458 13.649
0.25814433300000417 0.026 -0.317 1.305 -0.244 -24.992 10.351
0.27036137499999313 0.048 -0.346 1.342 4.099 -26.55 6.313
0.2776277499999935 0.032 -0.381 1.368 8.695 -28.198 3.664
0.2896567499999918 0.022 -0.403 1.387 14.565 -28.832 2.878
0.296994208000001 0.071 -0.421 1.396 18.214 -26.053 3.366
0.3092312079999999 0.11 -0.43 1.386 22.221 -20.076 3.679
0.3165354169999972 0.164 -0.462 1.369 27.855 -14.046 1.389
0.32854191699999546 0.165 -0.476 1.349 33.55 -10.885 -1.878
0.34057091699999376 0.186 -0.472 1.304 39.672 -6.137 -3.656
0.3478259580000014 0.222 -0.467 1.267 45.397 3.924 -5.557
0.36010541699999976 0.23 -0.44 1.229 49.534 8.374 -8.786
0.36742229200000054 0.269 -0.425 1.17 54.893 13.519 -12.153
0.3794558749999908 0.296 -0.405 1.102 60.046 16.359 -16.679
0.38655104199999357 0.298 -0.368 1.011 63.351 11.954 -23.405
0.3985441669999972 0.278 -0.337 0.931 65.45 18.252 -28.481
0.41055962499999055 0.237 -0.302 0.871 64.893 24.84 -30.908
0.41785579199999745 0.192 -0.28 0.81 62.29 26.557 -34.137
0.42988812499999085 0.194 -0.272 0.791 61.885 25.061 -37.603
0.4372856669999976 0.171 -0.25 0.75 61.412 29.458 -39.992
0.4492413749999997 0.168 -0.24 0.736 59.076 27.847 -44.237
0.4551432920000025 0.17 -0.235 0.729 56.771 24.191 -49.954
0.4683242499999949 0.182 -0.233 0.719 56.656 25.985 -55.099
0.48039033300000256 0.15 -0.239 0.732 55.443 26.405 -59.618
0.48770274999999685 0.108 -0.233 0.71 51.611 25.611 -62.344
0.4997270420000035 0.099 -0.238 0.72 47.458 26.969 -63.847
0.5070536249999975 0.064 -0.241 0.7 44.053 29.237 -64.397
0.5190198330000015 0.049 -0.245 0.699 41.656 31.763 -64.954
0.5310691669999983 0.005 -0.25 0.706 36.573 27.885 -66.588
0.5381036670000015 -0.032 -0.246 0.684 32.687 31.191 -67.565
0.5501114999999999 -0.088 -0.245 0.702 31.534 30.924 -68.168
0.557236582999991 -0.122 -0.241 0.675 28.359 28.313 -67.565
0.5692989580000045 -0.154 -0.229 0.663 24.565 25.672 -67.534
0.580999417000001 -0.205 -0.226 0.654 20.924 20.618 -66.962
0.5883601669999905 -0.24 -0.191 0.626 16.267 16.481 -65.183
0.6001133329999959 -0.254 -0.162 0.605 10.527 13.008 -63.489
0.6074321669999989 -0.288 -0.125 0.602 5.489 5.672 -62.687
0.6194416249999932 -0.289 -0.116 0.604 0.817 -1.229 -62.137
0.626736667000003 -0.3 -0.102 0.613 -3.985 -5.458 -62.229
0.6386280830000004 -0.334 -0.103 0.627 -9.153 -12.29 -61.947
0.6503803749999975 -0.331 -0.102 0.638 -13.069 -15.664 -60.939
0.6574363750000032 -0.38 -0.108 0.661 -17.779 -20.481 -58.931
0.669236541999993 -0.385 -0.121 0.676 -23.458 -20.84 -55.099
0.681021708000003 -0.415 -0.133 0.698 -27.206 -20.435 -50.443
0.687832499999999 -0.463 -0.147 0.755 -30.885 -27.824 -45.519
0.6996676669999999 -0.454 -0.154 0.776 -31.252 -18.58 -39.298
0.7067765420000001 -0.427 -0.148 0.786 -34.443 -12.649 -33.939
0.7185657919999926 -0.434 -0.139 0.755 -36.977 -3.916 -28.0
0.7303288330000015 -0.438 -0.129 0.757 -39.511 -18.046 -25.153
0.7375100830000036 -0.421 -0.105 0.776 -45.13 -34.824 -23.397
0.7493563329999944 -0.463 -0.114 0.808 -48.229 -44.061 -19.267
0.7611459999999965 -0.39 -0.115 0.808 -53.351 -41.031 -14.779
0.7681343329999919 -0.399 -0.125 0.825 -55.084 -11.237 -9.489
0.7800002500000005 -0.436 -0.144 0.903 -52.458 -12.947 -3.748
0.7873166669999989 -0.431 -0.15 0.949 -52.771 -18.015 1.71
0.7990558749999934 -0.419 -0.168 0.97 -54.656 -17.985 8.542
0.8111557080000011 -0.381 -0.164 0.998 -59.275 -14.885 14.733
0.8182167079999942 -0.345 -0.172 1.018 -62.252 -6.687 19.008
0.8301854999999989 -0.322 -0.172 1.022 -62.145 1.382 22.328
0.8375456250000042 -0.344 -0.165 1.019 -62.611 7.603 25.885
0.8493351669999925 -0.387 -0.172 1.02 -63.603 11.481 30.458
0.8566436250000038 -0.389 -0.165 1.022 -65.237 10.893 34.58
0.8686087079999965 -0.362 -0.17 1.042 -65.924 9.847 38.107
0.8803841670000025 -0.327 -0.182 1.076 -64.969 12.221 41.534
0.8877671249999963 -0.306 -0.206 1.064 -63.527 13.534 43.832
0.8995171669999991 -0.308 -0.216 1.085 -61.351 11.168 46.55
0.9068663329999964 -0.277 -0.225 1.113 -58.664 10.313 49.084
0.9189187919999995 -0.227 -0.246 1.134 -55.145 8.29 50.26
0.9308743329999913 -0.218 -0.283 1.168 -49.397 4.908 48.687
0.9379662500000023 -0.212 -0.311 1.183 -42.878 3.366 46.763
0.950023250000001 -0.247 -0.332 1.232 -36.863 -0.954 46.656
0.9570918329999927 -0.248 -0.345 1.223 -30.313 -8.031 47.725
0.969069250000004 -0.222 -0.359 1.238 -24.321 -6.588 51.924
0.9808944170000018 -0.214 -0.362 1.254 -16.557 -12.305 54.282
0.9881764999999945 -0.145 -0.36 1.243 -9.992 -17.053 55.298
0.9997924580000017 -0.099 -0.34 1.202 -5.817 -19.748 54.573
1.006904542000001 -0.063 -0.319 1.188 -2.679 -19.084 54.275
1.0190663329999978 -0.022 -0.306 1.175 1.672 -18.534 53.076
1.0259964170000018 0.045 -0.321 1.135 6.779 -19.733 49.137
1.0382526249999984 0.058 -0.324 1.123 9.763 -21.87 45.588
1.050530749999993 0.053 -0.345 1.166 13.252 -22.191 42.473
1.0575694580000032 0.045 -0.341 1.21 10.87 -21.435 40.855
1.0697552919999964 0.055 -0.374 1.257 21.824 -15.244 40.939
1.0764823749999977 0.074 -0.388 1.268 24.878 -13.458 39.16
1.0887426249999947 0.073 -0.375 1.249 25.137 -13.405 37.748
1.0945685419999904 0.103 -0.365 1.211 27.107 -8.855 35.771
1.1082774580000034 0.104 -0.351 1.173 29.641 -7.412 33.893
1.1204953750000044 0.116 -0.328 1.149 30.458 -8.267 30.489
1.1275669580000027 0.132 -0.322 1.118 31.405 -9.534 25.588
1.1398849999999925 0.121 -0.32 1.046 31.985 -11.313 20.916
1.146872916999996 0.123 -0.321 0.985 32.878 -10.038 17.069
1.1590870830000028 0.102 -0.32 0.955 32.847 -2.336 15.817
1.1661593749999923 0.077 -0.344 0.955 32.389 -2.282 13.962
1.1785030829999954 0.086 -0.364 0.965 32.336 -0.069 12.115
1.1907761669999957 0.074 -0.389 0.979 33.015 2.015 9.229
1.198327957999993 0.038 -0.405 0.97 32.023 -6.656 6.122
1.2103110000000044 0.054 -0.404 0.941 32.221 -8.916 3.733
1.217604332999997 0.038 -0.394 0.908 31.802 -12.229 1.397
1.229894999999999 0.023 -0.389 0.885 31.45 -10.137 0.588
1.2374229170000035 0.003 -0.372 0.859 30.191 -12.206 0.328
1.2492663749999906 -0.005 -0.346 0.803 27.656 -13.489 0.656
1.255221249999991 -0.014 -0.331 0.783 25.885 -13.267 0.313
1.268336167000001 -0.019 -0.329 0.754 24.023 -14.221 -1.198
1.2803525420000028 -0.03 -0.318 0.734 21.42 -17.405 -3.122
1.2873938329999959 -0.042 -0.303 0.724 18.336 -19.145 -3.679
1.2995800420000023 -0.048 -0.295 0.725 16.038 -18.649 -4.168
1.306579124999999 -0.06 -0.269 0.747 11.313 -19.847 -3.504
1.318618916999995 -0.044 -0.26 0.754 7.466 -21.847 -3.519
1.3306065000000018 -0.045 -0.261 0.781 3.573 -22.26 -4.573
1.3379210419999907 -0.047 -0.259 0.796 1.336 -24.244 -5.198
1.3500821669999965 -0.07 -0.257 0.82 0.023 -23.053 -6.13
1.3570499169999977 -0.09 -0.235 0.812 -2.534 -26.45 -6.221
1.3691080419999935 -0.086 -0.229 0.833 -5.244 -20.275 -4.565
1.3808709169999958 -0.081 -0.218 0.848 -8.061 -18.573 -3.168
1.3880982499999988 -0.028 -0.223 0.863 -9.969 -16.679 -3.481
1.4002000419999945 0.014 -0.215 0.817 -7.244 7.366 -3.603
1.4075439169999981 -0.078 -0.21 0.903 -9.405 -6.26 -3.336
1.4195354579999986 -0.063 -0.202 0.933 -13.725 -3.084 -2.221
1.426554166999992 -0.018 -0.213 0.957 -15.389 -0.458 -2.534
1.4385982919999947 -0.039 -0.217 0.99 -14.641 6.061 -1.969
1.4506866669999994 -0.056 -0.222 0.983 -13.763 3.26 -2.71
1.4578916669999984 -0.058 -0.222 0.975 -15.26 1.084 -3.298
1.469688542 -0.053 -0.22 0.963 -17.061 -0.359 -3.397
1.477046791999996 -0.039 -0.223 0.952 -17.26 3.008 -3.481
1.4889977079999994 -0.042 -0.229 0.952 -13.573 17.0 -1.626
1.5007976670000005 -0.079 -0.236 0.985 -12.542 18.939 -0.038
1.5080917920000019 -0.084 -0.244 0.998 -13.374 19.626 1.137
1.5200965420000045 -0.081 -0.248 0.995 -12.221 25.427 2.511
1.5273800420000043 -0.092 -0.248 0.997 -9.206 24.954 3.252
1.539403292000003 -0.079 -0.249 0.969 -7.252 24.382 3.573
1.5467507079999905 -0.087 -0.254 0.973 -5.779 24.618 4.061
1.5589926669999983 -0.089 -0.256 0.993 -2.863 21.145 2.969
1.5709990419999968 -0.088 -0.254 0.981 -0.527 18.397 2.137
1.578287582999991 -0.117 -0.239 0.966 -0.641 15.626 2.542
1.5905912919999992 -0.093 -0.243 0.958 0.374 13.771 2.672
1.5978639579999907 -0.077 -0.235 0.95 1.779 10.87 2.687
1.6101270829999947 -0.072 -0.24 0.951 2.802 11.198 3.229
1.6173725000000019 -0.086 -0.253 0.953 3.13 10.252 3.573
1.6297105000000016 -0.09 -0.261 0.974 4.252 6.298 2.405
1.6371889170000031 -0.092 -0.269 0.991 6.366 1.679 1.13
1.6492208749999975 -0.102 -0.264 0.989 7.389 -0.435 1.145
1.6567667500000027 -0.092 -0.252 0.978 6.412 -3.855 0.397
1.6687932920000037 -0.09 -0.242 0.976 6.229 -7.198 0.588
1.6809787919999906 -0.077 -0.233 0.969 6.405 -7.779 1.954
1.688282208000004 -0.068 -0.235 0.969 6.374 -7.817 1.969
1.7005652919999932 -0.064 -0.23 0.967 5.145 -10.397 0.641
1.7076905830000015 -0.064 -0.231 0.965 4.611 -11.618 -0.237
1.7197101670000023 -0.07 -0.231 0.961 4.389 -12.954 -1.565
1.7269438329999929 -0.082 -0.238 0.96 3.137 -15.985 -1.344
1.7390243330000033 -0.088 -0.25 0.978 3.74 -15.183 -1.099
1.751006916999998 -0.074 -0.25 0.977 3.076 -15.305 0.038
1.758308999999997 -0.056 -0.239 0.984 2.26 -12.641 0.466
1.7705872920000019 -0.076 -0.227 0.953 1.252 -9.588 1.092
1.7778588749999926 -0.068 -0.227 0.945 0.229 -9.13 1.176
1.789889291999998 -0.053 -0.228 0.953 -0.26 -10.611 0.145
1.797239832999992 -0.046 -0.233 0.965 -0.191 -11.092 -1.427
1.8091857080000011 -0.065 -0.235 0.966 0.053 -7.344 -1.176
1.816522957999993 -0.083 -0.235 0.953 -0.794 -2.855 0.046
1.8285373329999999 -0.074 -0.233 0.957 -1.649 -1.824 0.573
1.8408496670000005 -0.077 -0.236 0.949 -1.916 2.168 2.328
1.8478695000000016 -0.068 -0.237 0.959 -1.282 5.252 3.855
1.8603449579999989 -0.05 -0.235 0.976 -1.321 4.878 2.87
1.867626708000003 -0.064 -0.226 0.956 -2.023 5.153 2.061
1.8798947079999948 -0.062 -0.218 0.945 -2.397 5.351 1.397
1.8871692499999995 -0.061 -0.215 0.946 -2.427 3.389 1.061
1.9000162920000037 -0.06 -0.217 0.953 -2.603 5.099 0.962
1.9067832500000037 -0.073 -0.218 0.959 -3.328 5.527 1.458
1.9189876669999961 -0.06 -0.234 0.961 -2.84 7.015 1.122
1.9248540419999927 -0.06 -0.247 0.983 -1.565 7.817 0.435
1.9385562079999943 -0.062 -0.251 0.991 -0.115 8.595 -0.26
1.9505949170000036 -0.1 -0.238 0.964 -1.557 10.618 1.947
1.9578287079999939 -0.084 -0.235 0.977 -2.13 10.489 3.916
1.9698493749999955 -0.064 -0.241 0.958 -1.618 12.344 4.496
1.9774379999999923 -0.072 -0.232 0.947 -1.313 9.756 3.626
1.989320707999994 -0.079 -0.229 0.943 -1.275 5.916 1.985
1.9969380830000034 -0.087 -0.225 0.941 -1.336 1.595 1.328
