Time AX AY AZ GX GY GZ
0.013313457999998946 0.047 -0.253 0.982 -1.29 -2.634 1.061
0.025791999999995596 0.04 -0.242 0.97 -2.153 -2.405 1.817
0.03274204099999878 0.029 -0.25 0.966 -2.618 -1.84 0.954
0.04517229100000009 0.031 -0.249 0.97 -1.695 -1.313 1.282
0.052220790999996325 0.026 -0.247 0.959 -0.71 -1.252 2.252
0.06473216599999887 0.028 -0.267 0.964 -0.702 -1.611 2.053
0.07199549999999988 0.041 -0.269 0.97 -0.214 -2.244 2.061
0.08430795799999657 0.034 -0.276 0.965 -0.534 -2.458 0.893
0.09156304099999346 0.031 -0.284 0.946 -2.008 -4.305 3.901
0.10387491599999521 0.007 -0.316 0.943 -1.878 -5.328 4.656
0.1159020829999946 0.012 -0.318 0.938 -1.595 -6.664 4.985
0.12343737499999463 0.022 -0.313 0.933 -1.092 -6.832 5.031
0.1354375409999946 0.021 -0.331 0.916 -0.924 -7.42 4.328
0.14299808299999484 0.026 -0.287 0.929 3.244 -5.275 14.58
0.15498504099999622 0.018 -0.277 0.902 -2.595 -12.244 20.298
0.1623251249999953 0.031 -0.246 0.887 -0.527 -1.053 12.053
0.1742834579999979 -0.001 -0.299 0.912 -1.969 -4.122 9.427
0.181577874999995 -0.025 -0.257 0.938 -1.664 -5.473 17.794
0.1936275409999979 0.003 -0.251 0.922 -3.611 -6.031 14.847
0.20567587499999718 0.018 -0.228 0.909 -5.992 -6.252 15.969
0.21295370799999347 0.008 -0.221 0.927 -9.061 -6.405 17.191
0.22520249999999464 0.027 -0.217 0.928 -8.695 -3.954 14.542
0.23231616599999683 0.01 -0.205 0.936 -11.069 -4.649 14.107
0.24426508299999483 0.012 -0.211 0.956 -12.099 -6.298 13.595
0.2515535 0.007 -0.206 0.972 -12.206 -5.527 12.802
0.26362599999999503 -0.007 -0.209 1.003 -11.977 -7.603 12.565
0.2756463329999974 0.006 -0.179 1.01 -10.313 -10.763 9.122
0.28272887499999655 -0.009 -0.173 1.014 -18.527 -8.756 16.573
0.29476629099999485 -0.0 -0.203 1.04 -19.122 -8.794 13.26
0.3018660830000002 0.015 -0.187 1.048 -21.206 -10.176 13.618
0.31385079100000013 0.032 -0.182 1.072 -21.802 -12.534 13.046
0.32592949999999377 0.043 -0.253 1.097 -16.489 -13.229 9.71
0.3327478329999991 0.07 -0.258 1.145 -14.427 -15.29 10.107
0.3450434159999958 0.099 -0.258 1.175 -13.13 -15.847 8.817
0.35214012499999825 0.11 -0.3 1.214 -10.664 -16.641 7.321
0.3642868749999977 0.14 -0.311 1.254 -6.084 -15.947 8.107
0.3716876659999997 0.147 -0.34 1.266 -0.237 -14.916 7.046
0.3840123749999975 0.173 -0.332 1.264 0.641 -14.779 9.695
0.39584637499999786 0.184 -0.34 1.258 4.534 -15.924 5.0
0.403489332999996 0.279 -0.341 1.232 8.901 -13.511 2.481
0.4155079579999992 0.285 -0.35 1.259 13.534 -15.824 2.855
0.42289699999999897 0.35 -0.329 1.258 18.588 -11.641 -1.229
0.4348617079999997 0.376 -0.322 1.247 20.511 -10.695 -2.977
0.442165082999999 0.401 -0.31 1.258 24.405 -8.328 -3.824
0.45422045799999466 0.436 -0.317 1.241 27.145 -3.13 -6.252
0.4614551249999934 0.436 -0.342 1.233 31.443 1.794 -10.595
0.47337258299999974 0.441 -0.36 1.199 34.305 8.344 -11.832
0.4856453329999937 0.455 -0.372 1.139 40.71 10.115 -8.504
0.4927753749999937 0.425 -0.38 1.097 45.573 12.389 -10.924
0.5049751249999943 0.428 -0.326 1.059 47.573 8.824 -12.16
0.5122450409999999 0.464 -0.271 1.021 50.626 9.992 -21.84
0.5242929160000003 0.494 -0.228 1.0 50.656 8.733 -27.878
0.5316702909999975 0.525 -0.173 0.981 48.664 8.053 -35.168
0.5434711659999962 0.557 -0.154 0.988 46.687 13.817 -43.336
0.5556622499999975 0.537 -0.176 0.977 45.137 24.298 -47.038
0.5629979579999969 0.488 -0.164 0.955 40.893 27.183 -43.725
0.5749831659999955 0.444 -0.16 0.923 35.687 32.229 -43.26
0.5820329999999956 0.355 -0.16 0.857 26.45 36.969 -40.359
0.5940311249999937 0.286 -0.164 0.824 23.817 36.023 -41.351
0.6013599999999997 0.241 -0.185 0.786 26.328 32.779 -45.565
0.6134547909999952 0.206 -0.203 0.761 26.916 27.924 -51.321
0.6254660829999992 0.207 -0.187 0.755 25.595 22.71 -56.817
0.6328536249999956 0.203 -0.174 0.751 23.443 18.534 -65.313
0.6448139999999967 0.192 -0.185 0.753 21.718 15.527 -70.718
0.6519260829999993 0.161 -0.205 0.766 21.168 15.282 -75.42
0.6638230409999935 0.124 -0.246 0.746 19.855 15.794 -75.595
0.6758882499999999 0.087 -0.257 0.765 17.786 16.527 -73.107
0.6832100829999987 0.057 -0.253 0.75 13.992 18.519 -66.71
0.6951877499999952 0.013 -0.268 0.739 9.336 20.359 -64.557
0.7024924999999982 -0.041 -0.217 0.723 4.038 21.374 -56.046
0.7145221659999947 -0.111 -0.198 0.693 1.069 18.718 -50.374
0.7216007079999969 -0.145 -0.175 0.651 -1.519 15.183 -48.214
0.7336067079999964 -0.199 -0.15 0.619 -0.908 9.069 -51.122
0.7456456249999945 -0.211 -0.125 0.594 -1.237 0.748 -53.031
0.7529442499999988 -0.198 -0.126 0.619 -0.382 -7.618 -58.038
0.764718582999997 -0.177 -0.149 0.657 3.008 -14.763 -66.634
0.7721063749999999 -0.142 -0.16 0.702 5.237 -19.939 -73.893
0.7838748329999987 -0.111 -0.188 0.752 6.679 -20.13 -73.687
0.795859415999999 -0.119 -0.184 0.748 4.359 -19.786 -65.901
0.8029524159999966 -0.143 -0.201 0.739 -0.595 -20.84 -56.328
0.8148033329999933 -0.167 -0.2 0.732 -7.252 -21.13 -45.924
0.8220140829999991 -0.154 -0.19 0.668 -10.359 -22.695 -34.863
0.8336809159999987 -0.186 -0.153 0.709 -16.443 -23.26 -35.099
0.8454339159999975 -0.14 -0.125 0.739 -13.992 -23.794 -31.351
0.8525079159999933 -0.124 -0.134 0.797 -16.168 -21.542 -32.458
0.8642909999999944 -0.099 -0.116 0.834 -22.58 -14.962 -34.618
0.8713393329999946 -0.104 -0.142 0.855 -23.466 -8.725 -32.328
0.8831920829999973 -0.169 -0.188 0.835 -26.542 -7.107 -29.87
0.8949649159999993 -0.221 -0.202 0.837 -33.351 -9.321 -27.985
0.902012415999998 -0.26 -0.195 0.828 -37.061 -11.817 -23.527
0.9138705829999978 -0.261 -0.2 0.853 -40.656 -14.992 -21.618
0.9257218749999936 -0.232 -0.197 0.915 -47.481 -15.672 -16.481
0.9328283749999997 -0.243 -0.189 0.932 -55.824 -11.366 -10.321
0.9445127499999941 -0.244 -0.187 0.927 -59.023 -8.962 -3.26
0.9516020409999939 -0.218 -0.182 0.96 -52.321 -10.748 -1.786
0.9636324999999957 -0.196 -0.209 0.953 -52.099 -13.84 0.168
0.9756569999999982 -0.196 -0.213 0.995 -56.244 -18.16 1.282
0.9827114999999935 -0.161 -0.217 1.046 -55.313 -19.359 1.595
0.9947660409999983 -0.133 -0.235 1.085 -51.885 -18.802 3.885
1.0018767079999975 -0.119 -0.249 1.112 -51.534 -16.206 8.649
1.0136293329999972 -0.108 -0.283 1.152 -50.771 -12.359 13.321
1.0258188749999988 -0.111 -0.301 1.163 -49.71 -11.382 17.221
1.0329642499999991 -0.111 -0.32 1.16 -51.527 -11.252 23.947
1.0445382079999987 -0.114 -0.324 1.143 -49.962 -12.534 31.916
1.0516125829999936 -0.106 -0.335 1.137 -46.321 -14.702 36.725
1.0633902499999976 -0.075 -0.311 1.163 -41.687 -15.435 38.504
1.0754302909999964 -0.034 -0.269 1.175 -39.733 -16.282 42.16
1.082494374999996 -0.008 -0.262 1.222 -34.221 -13.221 44.878
1.094267791 -0.007 -0.276 1.222 -29.504 -8.832 46.534
1.1015633329999943 -0.03 -0.289 1.203 -25.634 -6.802 50.221
1.1133548329999954 -0.05 -0.297 1.175 -22.237 -7.908 54.153
1.1254507079999954 -0.036 -0.288 1.156 -15.145 -8.763 56.145
1.1325279999999935 -0.019 -0.299 1.136 -7.198 -10.023 58.824
1.1445805409999963 0.002 -0.294 1.126 -0.794 -11.863 58.725
1.151689249999997 0.042 -0.291 1.131 4.115 -13.779 59.519
1.1642091249999993 0.057 -0.29 1.137 9.443 -14.427 58.519
1.1700116249999937 0.093 -0.287 1.169 14.153 -13.977 60.595
1.1831885409999998 0.117 -0.29 1.177 19.336 -11.588 63.511
1.1951509999999956 0.134 -0.285 1.159 23.458 -10.634 64.74
1.2024383329999964 0.154 -0.289 1.154 27.733 -8.962 66.13
1.2146763329999999 0.177 -0.305 1.191 29.427 -8.565 61.863
1.2218156659999977 0.233 -0.304 1.159 34.183 -5.58 60.794
1.2338538329999977 0.222 -0.289 1.172 37.015 -7.099 59.374
1.2408029579999962 0.266 -0.279 1.167 34.45 0.656 48.328
1.2532735409999987 0.274 -0.275 1.163 32.336 -0.42 50.977
1.2656340829999948 0.28 -0.304 1.171 32.809 -1.618 44.305
1.2725712499999986 0.261 -0.296 1.161 36.656 1.847 31.344
1.2851020829999982 0.311 -0.262 1.134 31.115 3.588 39.557
1.2920990000000003 0.283 -0.27 1.122 28.885 5.023 37.71
1.3045960829999999 0.296 -0.246 1.089 27.565 7.748 33.924
1.3116001249999982 0.323 -0.209 1.059 26.924 9.061 33.672
1.324204082999998 0.367 -0.13 1.035 26.206 14.031 34.328
1.331254040999994 0.368 -0.105 1.013 24.145 20.145 32.023
1.3434461249999998 0.351 -0.084 0.975 20.374 21.931 30.038
1.3556952499999966 0.324 -0.082 0.958 17.634 16.45 29.42
1.3628579579999993 0.305 -0.114 0.954 20.092 14.695 22.878
1.3751971659999995 0.286 -0.175 0.933 18.466 13.702 14.618
1.3823585829999985 0.289 -0.264 0.944 22.198 12.756 5.191
1.3949008329999941 0.252 -0.357 0.982 29.206 2.519 8.924
1.4021772079999977 0.243 -0.388 1.016 30.084 4.229 11.901
1.4143324159999935 0.227 -0.368 1.013 25.0 4.252 14.649
1.4216764999999967 0.201 -0.311 0.974 17.366 1.206 22.26
1.433956290999994 0.157 -0.31 0.943 17.924 -2.489 18.458
1.4459177909999994 0.164 -0.271 0.885 22.214 -5.992 13.985
1.4531988749999982 0.18 -0.265 0.867 27.313 -9.885 6.542
1.4655156249999948 0.204 -0.265 0.882 29.916 -13.389 0.16
1.4725442499999986 0.229 -0.277 0.878 28.0 -14.802 -1.473
1.4845802910000003 0.241 -0.287 0.9 23.855 -13.84 -0.031
1.4919150409999986 0.214 -0.288 0.86 19.611 -10.771 2.29
1.504096957999998 0.185 -0.25 0.843 15.641 -10.527 7.107
1.5114165409999956 0.154 -0.215 0.797 12.931 -10.725 8.153
1.5234211249999987 0.13 -0.188 0.778 10.763 -12.282 5.046
1.5355075829999976 0.112 -0.174 0.772 10.969 -12.489 1.763
1.5428366659999995 0.119 -0.19 0.771 9.718 -13.069 -2.718
1.5549997910000002 0.118 -0.19 0.787 8.817 -11.565 -4.947
1.5622954999999976 0.119 -0.201 0.801 7.489 -9.107 -7.183
1.5745321249999975 0.114 -0.217 0.819 3.924 -7.794 -5.687
1.581801082999995 0.119 -0.223 0.844 3.244 -4.595 -0.145
1.5940224999999941 0.109 -0.247 0.847 5.26 -2.023 0.71
1.6015972499999975 0.093 -0.22 0.85 2.542 0.153 4.267
1.6138757909999981 0.079 -0.21 0.833 1.939 3.557 8.092
1.6212839579999994 0.031 -0.203 0.841 0.252 2.237 5.229
1.6339055409999972 0.038 -0.211 0.84 0.618 2.687 1.229
1.6397869999999983 0.071 -0.189 0.856 -2.031 1.366 1.221
1.6532039579999989 0.119 -0.175 0.916 -2.931 2.74 0.023
1.665693165999997 0.14 -0.175 0.932 -4.473 5.13 -1.244
1.6726761659999951 0.141 -0.178 0.97 -6.321 8.313 -0.855
1.6850763749999942 0.124 -0.176 0.969 -7.901 12.336 -3.809
1.6919379999999933 0.087 -0.18 0.948 -10.672 13.74 -2.885
1.7041292909999939 0.076 -0.179 0.945 -11.634 14.168 -3.863
1.7113497080000002 0.067 -0.187 0.975 -11.588 12.71 -3.397
1.7236574579999981 0.078 -0.189 0.982 -13.107 12.992 -2.542
1.7356346659999957 0.086 -0.193 1.018 -13.58 14.924 -2.427
1.7429923329999966 0.075 -0.226 1.021 -13.046 15.214 -1.351
1.7549822909999975 0.068 -0.217 1.007 -13.382 14.802 -2.137
1.7620864999999952 0.052 -0.236 1.0 -12.55 11.634 -1.74
1.774284124999994 0.048 -0.228 1.001 -10.985 8.939 -0.489
1.7815848329999966 0.072 -0.205 1.001 -11.809 5.718 0.542
1.7938354579999967 0.098 -0.191 1.017 -12.389 4.359 0.534
1.805826499999995 0.112 -0.17 1.019 -11.634 3.412 0.756
1.8134392499999947 0.11 -0.182 1.029 -9.863 2.656 -1.931
1.8253942079999987 0.123 -0.183 1.037 -8.634 3.252 -0.26
1.832968957999995 0.106 -0.192 1.039 -7.321 3.374 -2.29
1.8449310409999953 0.103 -0.189 1.028 -6.099 3.824 -2.992
1.8522335830000003 0.087 -0.194 1.006 -4.985 2.626 -2.275
1.8645692909999951 0.078 -0.187 0.997 -4.252 0.641 -1.427
1.8718248749999944 0.068 -0.187 0.992 -2.809 -2.435 -2.435
1.8841326249999995 0.066 -0.175 0.998 -1.71 -3.031 -3.534
1.8913991249999995 0.074 -0.186 0.986 -0.771 -4.099 -2.168
1.9033919999999966 0.069 -0.199 0.993 1.374 -3.901 -0.908
1.9157224159999942 0.064 -0.207 1.005 2.985 -2.748 -0.924
1.923244582999999 0.073 -0.18 1.013 1.985 -0.84 1.344
1.935513041 0.048 -0.182 1.0 2.42 0.137 1.076
1.9431009579999952 0.04 -0.19 1.004 3.809 0.771 -0.137
1.9550747499999943 0.029 -0.195 0.983 4.244 -0.634 -0.092
1.9625209999999953 0.024 -0.209 0.984 5.031 -1.878 0.16
1.9748308329999986 0.036 -0.222 0.978 5.641 -3.947 2.321
1.9823190409999967 0.03 -0.22 1.009 5.435 -3.786 5.13
1.9945490829999954 0.076 -0.205 0.996 6.382 -2.374 2.679
2.001809832999996 0.098 -0.207 0.994 6.397 -2.412 1.481
