Time AX AY AZ GX GY GZ
0.013052083000019365 -0.082 -0.251 0.955 3.244 -9.237 3.0
0.020037083000005396 -0.09 -0.218 0.952 1.786 -9.183 5.427
0.03248495799999773 -0.078 -0.243 0.954 1.214 -8.588 6.71
0.03963633300000424 -0.093 -0.222 0.932 1.305 -9.069 9.534
0.05178491600000257 -0.089 -0.213 0.918 -0.947 -9.786 10.389
0.06400237500000117 -0.093 -0.219 0.911 -1.679 -10.214 9.023
0.07110425000001896 -0.088 -0.196 0.896 -3.695 -9.702 9.718
0.08348754100001088 -0.087 -0.202 0.885 -4.466 -8.718 10.069
0.09061208299999635 -0.082 -0.203 0.873 -6.58 -8.115 13.298
0.10241379100000358 -0.114 -0.23 0.851 -11.023 -7.939 16.176
0.1097819999999956 -0.126 -0.257 0.832 -13.122 -8.405 16.496
0.12155920800000786 -0.095 -0.246 0.815 -11.756 -7.527 19.504
0.13364350000000513 -0.13 -0.266 0.827 -12.916 -12.702 23.252
0.14067758300001287 -0.109 -0.264 0.823 -13.718 -12.824 19.55
0.15239966600000798 -0.083 -0.224 0.83 -16.779 -15.786 21.466
0.16421858300000736 -0.066 -0.21 0.844 -21.137 -15.229 24.626
0.17129416599999558 -0.053 -0.204 0.844 -22.817 -14.893 24.42
0.18333391600000937 -0.036 -0.214 0.881 -25.252 -13.504 25.046
0.1904953750000118 -0.046 -0.238 0.889 -29.412 -11.733 29.435
0.20220937499999536 -0.077 -0.243 0.891 -31.794 -10.473 29.832
0.21406091600002242 -0.111 -0.234 0.871 -37.74 -12.298 33.725
0.22109079100002305 -0.132 -0.253 0.867 -38.435 -17.229 33.115
0.23308920799999555 -0.13 -0.234 0.842 -38.573 -23.427 32.847
0.24019070800000009 -0.127 -0.241 0.87 -36.786 -30.962 25.695
0.25200474999999756 -0.09 -0.234 0.916 -35.511 -36.214 19.061
0.2637950410000087 -0.058 -0.247 0.945 -36.145 -40.748 16.763
0.27086383300002126 -0.016 -0.276 1.002 -36.496 -44.321 15.473
0.28284341600001994 0.032 -0.312 1.072 -35.115 -45.13 17.153
0.289917250000002 0.084 -0.3 1.111 -34.489 -44.573 17.435
0.3019453750000025 0.129 -0.281 1.161 -36.252 -42.198 16.145
0.3140167500000075 0.16 -0.269 1.208 -37.244 -37.939 14.863
0.32110587500000065 0.171 -0.268 1.226 -36.809 -33.298 13.351
0.33315195800000197 0.162 -0.302 1.244 -33.947 -29.977 10.939
0.3402143750000164 0.145 -0.324 1.253 -30.313 -28.328 10.817
0.3521952080000119 0.155 -0.349 1.266 -26.359 -28.466 8.916
0.3642564160000177 0.176 -0.364 1.29 -22.71 -28.466 6.496
0.3715702910000118 0.226 -0.385 1.32 -17.16 -25.58 5.137
0.38358766600001104 0.248 -0.397 1.33 -12.878 -23.168 2.947
0.3905843750000031 0.268 -0.398 1.354 -8.282 -19.0 -0.237
0.4026452079999956 0.332 -0.408 1.336 -1.45 -12.092 -2.405
0.41016412500002275 0.327 -0.415 1.331 2.664 -7.687 4.496
0.4225812079999969 0.328 -0.423 1.318 6.198 -1.489 6.664
0.4299798330000044 0.312 -0.414 1.288 10.282 0.885 4.16
0.4421846250000101 0.299 -0.405 1.242 16.511 3.939 1.916
0.4542153330000076 0.295 -0.411 1.225 22.603 5.076 -1.344
0.4615473329999986 0.302 -0.402 1.212 29.74 7.275 -3.26
0.4737297910000109 0.297 -0.411 1.168 35.908 9.55 -5.382
0.4810681250000073 0.298 -0.424 1.119 39.359 9.947 -7.206
0.4933666660000142 0.306 -0.442 1.097 47.611 7.748 -22.092
0.5006272079999974 0.346 -0.423 1.133 57.023 10.481 -27.771
0.5126300000000015 0.366 -0.403 1.128 62.901 15.252 -29.702
0.5197321660000114 0.371 -0.375 1.095 60.366 22.305 -28.466
0.5316841249999982 0.333 -0.367 1.045 55.718 27.405 -26.008
0.543782541000013 0.282 -0.354 0.972 52.359 30.641 -25.26
0.5510662500000194 0.232 -0.328 0.907 50.16 30.351 -27.618
0.563102750000013 0.213 -0.295 0.866 50.901 28.901 -33.557
0.5704641250000009 0.187 -0.274 0.828 53.076 26.802 -39.771
0.5824431249999975 0.181 -0.273 0.784 56.687 23.252 -49.702
0.588446083000008 0.181 -0.257 0.773 62.137 15.733 -58.153
0.6016237910000086 0.207 -0.242 0.783 61.031 13.55 -65.282
0.6135540410000146 0.219 -0.23 0.789 56.756 14.763 -68.237
0.6208777909999981 0.227 -0.228 0.805 50.916 18.611 -66.634
0.6328521660000206 0.203 -0.222 0.803 46.069 21.0 -63.779
0.6401797500000157 0.177 -0.202 0.762 39.55 22.053 -60.435
0.652248874999998 0.136 -0.195 0.72 34.328 22.855 -61.725
0.6642207910000195 0.105 -0.203 0.689 30.603 21.595 -64.756
0.6713842500000169 0.09 -0.196 0.664 29.855 18.756 -69.183
0.6833135830000003 0.07 -0.19 0.649 26.573 14.817 -70.679
0.690622583000021 0.063 -0.208 0.653 21.359 12.496 -72.84
0.7026270409999995 0.071 -0.202 0.672 17.214 11.053 -72.344
0.7099048750000065 0.068 -0.2 0.702 14.939 11.061 -72.641
0.7220664160000183 0.069 -0.181 0.719 12.374 13.511 -69.26
0.7339852910000104 0.036 -0.175 0.721 9.931 14.42 -62.611
0.7413515410000002 0.008 -0.178 0.7 3.901 13.412 -59.939
0.7532987910000202 -0.03 -0.196 0.674 -0.924 9.771 -60.443
0.760598750000014 -0.044 -0.205 0.673 -2.374 6.885 -64.069
0.7727442500000166 -0.06 -0.206 0.655 -2.58 3.947 -65.534
0.7796982499999956 -0.063 -0.193 0.662 -3.16 0.214 -65.924
0.7918142080000052 -0.083 -0.183 0.666 -4.565 -3.046 -65.489
0.8035785000000146 -0.076 -0.161 0.685 -10.992 -5.74 -63.168
0.8106150000000127 -0.079 -0.154 0.686 -18.237 -6.092 -62.931
0.8227290410000023 -0.091 -0.166 0.698 -18.313 -7.061 -61.29
0.8296952910000073 -0.095 -0.157 0.715 -18.153 -6.947 -59.695
0.8413672500000189 -0.119 -0.162 0.733 -19.779 -5.275 -56.183
0.8532761250000078 -0.149 -0.161 0.724 -22.298 -4.908 -52.656
0.8600896660000217 -0.164 -0.17 0.706 -25.534 -6.061 -46.405
0.8722453330000235 -0.217 -0.202 0.72 -27.985 -11.16 -41.55
0.8839999160000218 -0.234 -0.191 0.709 -30.389 -13.282 -41.107
0.8910465410000086 -0.241 -0.199 0.737 -31.046 -15.481 -41.634
0.9028342080000016 -0.229 -0.203 0.751 -30.931 -16.802 -40.985
0.9099336660000006 -0.229 -0.225 0.804 -29.427 -17.153 -36.458
0.9218055830000083 -0.239 -0.225 0.836 -29.344 -17.214 -30.031
0.9335710410000218 -0.221 -0.224 0.859 -32.84 -17.206 -22.092
0.9404300000000205 -0.252 -0.22 0.888 -35.809 -18.847 -14.542
0.9524131660000137 -0.257 -0.22 0.887 -39.16 -18.58 -9.809
0.9642157910000151 -0.266 -0.219 0.89 -41.672 -20.069 -5.969
0.9713263330000075 -0.265 -0.24 0.9 -47.641 -22.45 -2.443
0.9830937080000126 -0.245 -0.286 0.918 -56.511 -21.405 -0.275
0.9905960000000107 -0.237 -0.319 0.952 -55.374 -21.527 2.198
1.0021070000000236 -0.213 -0.313 1.008 -43.794 -23.214 6.618
1.0142353330000162 -0.204 -0.307 1.014 -39.55 -25.298 9.718
1.0209672500000124 -0.181 -0.305 1.061 -47.023 -24.878 14.916
1.0328918750000184 -0.173 -0.301 1.073 -55.679 -21.328 24.084
1.039595750000018 -0.17 -0.311 1.056 -55.733 -24.565 25.237
1.0519467500000133 -0.141 -0.334 1.075 -52.359 -28.084 26.336
1.063950540999997 -0.112 -0.361 1.098 -48.267 -29.328 28.618
1.0707846660000087 -0.08 -0.361 1.136 -45.641 -26.359 31.45
1.082669750000008 -0.04 -0.383 1.168 -45.634 -21.397 38.145
1.0894343749999962 -0.047 -0.379 1.195 -45.481 -16.603 46.786
1.1016998750000084 -0.067 -0.382 1.143 -47.557 -15.771 53.679
1.1136892910000142 -0.074 -0.36 1.128 -48.275 -15.962 65.015
1.120539000000008 -0.069 -0.388 1.102 -43.145 -19.397 65.969
1.1326017500000205 -0.031 -0.356 1.121 -36.885 -22.031 66.588
1.139597957999996 0.006 -0.351 1.115 -27.397 -25.015 62.435
1.1515444580000178 0.064 -0.375 1.166 -21.221 -25.87 58.42
1.1637284580000085 0.119 -0.383 1.203 -15.344 -22.359 57.763
1.170767000000012 0.142 -0.399 1.227 -10.42 -16.359 55.87
1.183109666000007 0.152 -0.379 1.249 -8.542 -7.511 67.87
1.1904727499999979 0.128 -0.348 1.205 -7.359 -2.13 75.321
1.2024626250000097 0.082 -0.351 1.107 -5.466 -2.748 78.336
1.2097503330000166 0.056 -0.352 1.05 -0.275 -8.122 73.763
1.2217285410000045 0.095 -0.325 1.062 8.542 -15.122 64.634
1.2337448750000135 0.174 -0.325 1.114 16.985 -19.351 56.855
1.2410413329999983 0.233 -0.306 1.161 24.015 -20.71 46.267
1.2531238330000178 0.277 -0.307 1.206 26.176 -19.496 35.947
1.2604548330000114 0.31 -0.282 1.263 25.214 -13.679 38.305
1.2725471660000096 0.324 -0.308 1.241 26.573 -7.267 39.053
1.2796952500000032 0.298 -0.312 1.21 27.031 -3.221 43.496
1.2917725000000075 0.272 -0.339 1.165 28.901 -6.107 44.534
1.3039973750000229 0.346 -0.302 1.104 26.092 -8.458 41.733
1.3113026249999962 0.296 -0.312 1.138 35.13 -4.901 36.069
1.3233395409999957 0.303 -0.293 1.135 29.885 1.038 29.885
1.330624499999999 0.3 -0.312 1.133 24.794 -2.076 28.321
1.342926250000005 0.304 -0.294 1.098 27.962 -7.496 24.305
1.3501716660000227 0.32 -0.29 1.076 35.679 -6.191 18.42
1.3621474159999991 0.33 -0.273 1.09 41.87 -4.779 9.16
1.3697062079999966 0.358 -0.258 1.107 38.985 -1.985 7.679
1.3819710829999963 0.366 -0.285 1.117 33.748 2.031 7.649
1.3940704160000053 0.357 -0.31 1.091 32.84 5.565 10.405
1.4013556250000079 0.336 -0.316 1.071 36.458 10.42 13.0
1.4135900830000026 0.315 -0.322 1.051 37.458 9.809 14.611
1.420826333000008 0.3 -0.303 1.021 33.901 11.588 15.015
1.4330839579999974 0.264 -0.294 0.973 30.611 9.443 13.305
1.4403555410000024 0.259 -0.272 0.966 32.26 6.702 7.13
1.452696541000023 0.26 -0.261 0.955 36.244 8.008 0.641
1.460194333000004 0.248 -0.283 0.96 36.74 9.74 -3.145
1.472234166000021 0.255 -0.28 0.96 33.672 10.015 -3.893
1.4841880410000101 0.235 -0.291 0.941 30.275 10.817 -6.344
1.4914649160000124 0.235 -0.273 0.95 27.221 12.649 -7.252
1.503762082999998 0.223 -0.23 0.963 27.16 14.863 -8.023
1.511020125000016 0.211 -0.231 0.924 25.618 17.847 -7.748
1.5231547080000212 0.186 -0.23 0.903 22.221 20.954 -9.626
1.5305279160000111 0.155 -0.248 0.868 18.855 22.206 -10.962
1.542432041000012 0.135 -0.265 0.85 19.13 20.656 -14.473
1.548312583000012 0.106 -0.307 0.834 19.466 20.076 -18.115
1.5614836250000224 0.086 -0.347 0.817 21.947 19.992 -18.763
1.5735042500000134 0.071 -0.35 0.798 24.344 19.504 -16.664
1.5808119579999982 0.055 -0.349 0.776 23.183 20.023 -12.458
1.5929247500000088 0.042 -0.349 0.747 21.061 21.496 -6.145
1.6002403330000163 0.015 -0.341 0.705 19.58 22.939 -0.298
1.6124360410000236 -0.009 -0.34 0.667 19.527 24.198 4.153
1.6197353750000048 -0.032 -0.322 0.627 21.031 20.427 0.412
1.6317579580000086 -0.029 -0.287 0.634 22.16 20.076 2.824
1.6437713330000179 -0.019 -0.254 0.643 23.687 19.504 1.374
1.6510867500000188 -0.007 -0.228 0.639 21.481 20.244 4.763
1.6633291250000184 -0.026 -0.205 0.653 19.382 17.947 6.573
1.670705416000004 -0.032 -0.181 0.683 17.298 16.221 8.198
1.6826298330000213 -0.044 -0.125 0.704 10.496 15.672 11.74
1.6899994160000062 -0.054 -0.092 0.731 1.985 14.252 11.427
1.7019927500000165 -0.056 -0.075 0.776 -1.046 11.389 7.267
1.7142607500000224 -0.027 -0.05 0.85 -4.504 9.779 5.008
1.721665999999999 -0.023 -0.054 0.893 -7.786 9.893 -0.565
1.733735375000009 -0.025 -0.069 0.941 -13.244 9.084 -4.229
1.7407161250000058 -0.01 -0.103 0.97 -17.206 9.626 -7.191
1.7527206250000233 -0.009 -0.114 1.009 -22.794 10.298 -6.618
1.7597093330000178 -0.012 -0.142 1.048 -27.321 11.786 -4.863
1.7718663330000197 -0.022 -0.163 1.077 -30.679 14.183 -3.115
1.7838200830000233 -0.031 -0.205 1.09 -31.878 14.947 -1.969
1.790925250000015 -0.043 -0.21 1.087 -31.565 14.16 -1.924
1.8029573750000054 -0.049 -0.233 1.086 -29.87 13.359 -1.832
1.810012333000003 -0.038 -0.25 1.084 -28.305 13.718 -3.023
1.8220812910000177 -0.029 -0.248 1.104 -27.473 13.214 -1.863
1.8337555829999985 -0.017 -0.268 1.094 -25.802 12.802 -0.458
1.8411214160000213 -0.007 -0.278 1.105 -23.504 12.0 0.382
1.8530901250000227 -0.014 -0.292 1.094 -17.84 11.794 0.481
1.8604997910000236 -0.016 -0.284 1.084 -15.313 12.229 3.275
1.8724358750000079 -0.039 -0.293 1.052 -14.901 11.611 7.0
1.8784296249999954 -0.055 -0.285 1.029 -12.939 10.214 7.718
1.8917483330000096 -0.058 -0.28 1.003 -11.031 7.305 7.366
1.9036959580000143 -0.051 -0.27 0.995 -6.725 4.641 5.977
1.9113450410000041 -0.056 -0.266 0.981 -3.519 2.137 5.58
1.9233266250000156 -0.042 -0.263 0.978 -0.107 -0.779 2.031
1.930625125000006 -0.016 -0.255 0.981 3.847 -1.603 0.603
1.9428582910000216 0.005 -0.225 0.982 7.008 -1.244 2.099
1.9503556250000145 0.012 -0.195 0.984 7.771 -0.473 5.015
1.9625995000000103 0.011 -0.2 0.974 8.748 0.084 2.389
1.9701710000000219 0.0 -0.194 0.963 10.405 1.237 1.496
1.9823811250000176 -0.022 -0.196 0.96 12.626 1.863 1.809
1.9897342080000158 -0.029 -0.203 0.934 12.443 1.511 2.298
2.002018958000008 -0.044 -0.205 0.931 12.435 0.939 1.847
