Time AX AY AZ GX GY GZ
0.020023583000011058 -0.029 -0.228 0.972 -4.29 -0.344 2.153
0.032251375000015514 -0.033 -0.228 0.971 -5.374 -0.336 3.374
0.03920979200000829 -0.037 -0.217 0.957 -3.977 -0.145 2.511
0.05146216700001105 -0.043 -0.213 0.946 -3.702 -0.061 3.168
0.05853670799999122 -0.05 -0.208 0.939 -4.076 -0.26 3.115
0.07117483300001481 -0.055 -0.206 0.94 -3.29 -1.137 3.046
0.08316425000001004 -0.052 -0.231 0.934 -1.702 -1.137 1.71
0.09043679199999133 -0.049 -0.249 0.938 -0.191 -2.046 2.702
0.10284774999999513 -0.044 -0.266 0.928 1.115 -2.664 2.672
0.11006237500001248 -0.048 -0.276 0.934 1.061 -4.16 5.298
0.12225608299999635 -0.046 -0.278 0.939 0.748 -5.366 5.366
0.12955308299999047 -0.026 -0.277 0.946 1.168 -6.985 6.824
0.14177595800001086 -0.024 -0.274 0.949 2.42 -7.076 6.267
0.1491107920000161 -0.009 -0.263 0.956 2.351 -7.122 5.817
0.1614651669999887 -0.035 -0.243 0.938 1.252 -8.076 5.924
0.1686940419999985 -0.015 -0.289 0.966 5.443 -9.176 1.0
0.18093795800001544 0.005 -0.231 0.99 4.336 -8.817 8.519
0.19319462499998963 -0.013 -0.258 0.957 4.42 -9.168 4.031
0.20052420799999027 0.021 -0.18 0.965 -2.328 -10.092 9.947
0.2128487919999884 0.027 -0.191 0.959 -1.802 -9.29 5.397
0.2202626250000037 0.054 -0.157 0.977 -3.702 -8.649 6.885
0.23208695799999646 0.059 -0.169 0.979 -4.87 -6.16 4.969
0.23961320800000863 0.052 -0.161 0.961 -9.58 -4.252 5.16
0.251575124999988 0.028 -0.183 0.935 -12.344 -3.153 3.748
0.25884212500000103 0.013 -0.197 0.935 -13.153 -3.382 3.863
0.2710010000000125 -0.005 -0.223 0.925 -12.901 -3.779 3.809
0.28299208300001055 -0.027 -0.227 0.928 -15.084 -4.282 5.954
0.2903219579999927 -0.051 -0.235 0.893 -16.962 -5.267 9.305
0.30207970800000794 -0.059 -0.21 0.879 -19.061 -7.13 11.947
0.30935041699999033 -0.054 -0.234 0.872 -17.176 -7.542 13.206
0.3212656670000058 -0.06 -0.237 0.844 -15.649 -9.351 14.405
0.33324141700001064 -0.063 -0.238 0.842 -14.939 -12.885 11.786
0.3402582079999945 -0.051 -0.274 0.857 -13.672 -16.168 10.687
0.3520054170000151 -0.027 -0.243 0.885 -13.924 -17.237 11.702
0.35905462499999885 -0.01 -0.228 0.896 -16.046 -16.733 13.374
0.371224667000007 0.01 -0.245 0.922 -17.229 -15.031 15.267
0.38297229200000515 -0.015 -0.248 0.896 -20.511 -14.672 18.985
0.39002291700001024 -0.024 -0.232 0.876 -22.992 -15.061 17.931
0.4017905830000075 -0.035 -0.239 0.868 -23.45 -15.74 16.901
0.40887587500000677 -0.036 -0.229 0.875 -23.13 -16.924 15.908
0.42091583300000934 -0.037 -0.229 0.886 -21.061 -19.084 14.145
0.4326713750000124 -0.014 -0.211 0.907 -23.511 -20.458 15.229
0.43980029200000104 0.012 -0.21 0.916 -26.542 -20.244 15.191
0.451776332999998 0.031 -0.205 0.964 -27.519 -20.344 14.702
0.4588613749999979 0.059 -0.211 1.007 -27.542 -17.817 13.603
0.47088845799999035 0.064 -0.235 1.044 -26.786 -14.466 13.397
0.48294891700001585 0.061 -0.279 1.068 -26.817 -11.656 13.794
0.49000329200001147 0.064 -0.28 1.101 -29.046 -10.58 15.504
0.5020455000000084 0.065 -0.274 1.137 -31.206 -9.107 17.634
0.5092828330000145 0.08 -0.28 1.163 -31.29 -8.748 17.664
0.5213798329999975 0.093 -0.272 1.165 -30.122 -9.115 13.626
0.5273247920000017 0.121 -0.259 1.197 -28.237 -10.756 6.947
0.5404305000000136 0.142 -0.288 1.227 -23.977 -11.435 -0.74
0.5524940829999991 0.182 -0.318 1.264 -19.489 -13.023 -7.824
0.5595441670000127 0.23 -0.392 1.311 -12.672 -12.924 -9.947
0.5715795000000128 0.28 -0.434 1.361 -7.824 -7.84 -7.084
0.5789132499999994 0.332 -0.46 1.392 -6.244 -1.458 -2.733
0.5912086250000073 0.313 -0.462 1.351 -5.664 5.191 2.55
0.5984829580000053 0.317 -0.465 1.294 -1.847 9.244 4.672
0.6108326250000005 0.295 -0.443 1.268 2.779 11.305 4.947
0.6231144580000034 0.299 -0.425 1.217 9.695 11.863 -1.534
0.6304857920000018 0.295 -0.422 1.193 17.282 11.954 -6.687
0.6424599169999965 0.307 -0.457 1.171 25.664 10.481 -14.802
0.6495781670000156 0.332 -0.464 1.173 31.366 11.756 -18.573
0.6614657920000013 0.357 -0.477 1.19 36.481 14.351 -20.099
0.6688161669999886 0.376 -0.485 1.191 41.183 18.916 -19.13
0.6809098330000154 0.39 -0.47 1.185 44.038 26.206 -15.885
0.6929279169999916 0.38 -0.448 1.143 43.122 33.023 -10.221
0.700211749999994 0.355 -0.415 1.096 45.107 35.748 -10.931
0.7122450420000064 0.3 -0.381 1.061 47.718 32.824 -21.771
0.7193135830000017 0.33 -0.31 1.001 50.26 36.924 -23.672
0.7313052499999912 0.282 -0.325 0.997 55.206 35.573 -31.603
0.7386372080000001 0.269 -0.318 0.979 58.641 35.977 -36.573
0.7506442080000113 0.255 -0.326 0.971 54.809 37.092 -35.092
0.7627687920000028 0.223 -0.336 0.961 49.588 39.733 -31.969
0.7701288330000011 0.19 -0.329 0.927 44.611 41.221 -28.244
0.7820922500000052 0.153 -0.306 0.894 43.351 42.427 -26.626
0.7891952919999881 0.116 -0.27 0.833 41.718 40.107 -30.534
0.8010877920000041 0.119 -0.226 0.817 39.519 38.893 -35.771
0.8131559580000101 0.089 -0.213 0.789 42.412 35.252 -41.832
0.8204671249999933 0.087 -0.183 0.787 45.718 29.695 -45.985
0.83251362499999 0.07 -0.194 0.76 41.183 28.099 -49.145
0.839765749999998 0.046 -0.206 0.746 34.229 26.42 -51.328
0.851884291999994 0.024 -0.185 0.741 30.847 24.794 -52.191
0.8588724999999897 -0.007 -0.177 0.72 29.382 21.756 -53.046
0.8709215419999907 -0.027 -0.169 0.69 26.412 18.71 -55.16
0.8826794999999947 -0.055 -0.165 0.676 23.611 15.756 -56.893
0.8901185830000031 -0.069 -0.168 0.664 21.008 11.893 -58.809
0.9020412920000069 -0.067 -0.16 0.663 17.756 8.695 -58.389
0.909127500000011 -0.075 -0.136 0.669 16.16 6.389 -58.466
0.9211654579999902 -0.081 -0.157 0.67 13.611 5.137 -57.382
0.9272096669999996 -0.082 -0.156 0.678 9.344 4.122 -54.611
0.9406697080000015 -0.096 -0.15 0.659 7.313 3.183 -53.939
0.9526923330000159 -0.106 -0.159 0.666 6.214 1.412 -52.718
0.9600732499999935 -0.119 -0.158 0.657 3.328 -1.015 -52.008
0.9721096670000122 -0.145 -0.147 0.643 0.282 -3.832 -52.084
0.9792185000000018 -0.15 -0.165 0.652 -1.817 -6.496 -52.885
0.9911973750000129 -0.154 -0.154 0.672 -3.992 -8.87 -51.023
1.002915833000003 -0.155 -0.163 0.682 -5.802 -10.397 -52.107
1.0097202080000045 -0.155 -0.158 0.712 -7.137 -12.282 -53.679
1.0216239579999922 -0.142 -0.138 0.745 -11.672 -13.427 -53.458
1.028401042000013 -0.143 -0.151 0.759 -12.611 -13.45 -55.603
1.0403832920000013 -0.149 -0.181 0.759 -13.649 -13.977 -56.115
1.0523578750000127 -0.154 -0.207 0.772 -15.626 -14.053 -54.282
1.0588693750000004 -0.163 -0.241 0.78 -16.115 -13.29 -52.71
1.0708981250000136 -0.17 -0.26 0.793 -18.458 -13.015 -47.412
1.0828653330000009 -0.195 -0.256 0.813 -22.29 -11.786 -40.893
1.0896158330000105 -0.221 -0.25 0.822 -23.298 -11.916 -33.924
1.1016532920000088 -0.246 -0.24 0.815 -26.504 -13.42 -29.0
1.1083618750000142 -0.256 -0.231 0.852 -27.977 -14.137 -25.191
1.1203964999999982 -0.257 -0.239 0.86 -27.794 -14.84 -23.183
1.132412291999998 -0.259 -0.239 0.844 -26.626 -15.679 -22.992
1.1389350000000036 -0.248 -0.246 0.86 -26.42 -17.489 -21.099
1.1510837920000085 -0.24 -0.257 0.842 -27.588 -18.977 -19.237
1.1629008749999912 -0.241 -0.262 0.86 -32.229 -22.176 -16.084
1.1697193749999997 -0.223 -0.27 0.864 -39.969 -22.496 -15.008
1.1818289999999934 -0.228 -0.269 0.865 -43.824 -23.954 -14.061
1.188917250000003 -0.208 -0.27 0.898 -37.702 -26.038 -15.84
1.2006579579999936 -0.191 -0.278 0.937 -31.466 -27.206 -12.878
1.2124573330000032 -0.181 -0.3 0.938 -31.374 -26.115 -8.878
1.219357207999991 -0.181 -0.313 0.928 -34.504 -26.908 -5.305
1.2313182080000047 -0.169 -0.312 0.945 -39.573 -27.878 -0.748
1.2386692080000046 -0.158 -0.289 0.979 -42.389 -28.244 4.519
1.2504547499999887 -0.144 -0.284 1.024 -41.137 -27.153 6.725
1.262511791999998 -0.135 -0.272 1.037 -36.802 -25.069 11.321
1.269561957999997 -0.136 -0.283 1.047 -35.252 -24.519 14.855
1.281341999999995 -0.148 -0.303 1.028 -33.466 -24.939 15.908
1.2931625829999973 -0.141 -0.306 1.011 -33.206 -26.954 17.435
1.3003019580000057 -0.124 -0.324 1.017 -32.557 -28.29 20.374
1.3123459580000087 -0.124 -0.342 1.032 -30.13 -29.954 20.809
1.3193812499999922 -0.094 -0.338 1.084 -28.374 -29.786 24.992
1.3311620419999883 -0.08 -0.338 1.127 -25.626 -28.076 29.954
1.3429355830000134 -0.052 -0.326 1.157 -24.008 -24.252 35.611
1.349988666999991 -0.037 -0.32 1.177 -23.992 -18.939 45.977
1.3620458329999963 -0.035 -0.331 1.158 -25.023 -13.481 54.679
1.3691629170000112 -0.051 -0.351 1.135 -26.031 -10.244 61.641
1.3809932919999994 -0.069 -0.329 1.066 -26.924 -12.092 62.534
1.3926952500000027 -0.077 -0.334 1.042 -26.0 -16.985 60.328
1.3997320420000108 -0.034 -0.337 1.062 -22.588 -20.534 57.313
1.4117752920000157 0.008 -0.312 1.08 -17.282 -21.061 56.634
1.418879750000002 0.041 -0.325 1.096 -12.733 -24.313 48.718
1.4308891670000037 0.095 -0.298 1.158 -12.0 -23.939 48.847
1.4429709579999894 0.122 -0.286 1.159 -12.099 -21.267 50.557
1.450041375000012 0.115 -0.29 1.147 -11.076 -18.122 49.069
1.4620504170000004 0.077 -0.303 1.087 -9.87 -16.656 50.71
1.4693285829999922 0.058 -0.295 1.033 -8.351 -22.29 45.634
1.4814461249999908 0.075 -0.264 1.031 -6.733 -28.893 38.733
1.4874135000000024 0.116 -0.271 1.049 -1.458 -33.809 28.931
1.5006700829999886 0.177 -0.26 1.075 1.252 -37.137 20.939
1.5127328330000012 0.226 -0.275 1.11 4.092 -37.397 14.71
1.5200041669999962 0.266 -0.326 1.167 8.069 -33.748 12.733
1.5321208329999934 0.259 -0.384 1.163 12.16 -29.924 12.779
1.5394005830000026 0.278 -0.414 1.172 16.038 -27.58 16.443
1.551304750000014 0.303 -0.396 1.118 21.023 -27.481 21.84
1.556982167000001 0.343 -0.389 1.146 20.275 -19.626 24.969
1.5702302079999981 0.375 -0.37 1.164 19.405 -15.427 26.198
1.5824452500000064 0.413 -0.315 1.19 18.168 -10.366 32.0
1.589635874999999 0.417 -0.28 1.178 19.847 -4.748 35.603
1.6020028330000002 0.409 -0.253 1.132 22.733 0.481 34.87
1.6092698330000133 0.41 -0.251 1.111 22.26 3.244 33.603
1.6215557499999989 0.405 -0.226 1.047 27.405 -1.344 29.916
1.628984375000016 0.405 -0.224 1.055 25.191 4.191 20.336
1.6409667499999898 0.416 -0.246 1.081 17.817 12.366 14.443
1.6531668750000108 0.398 -0.241 1.08 11.244 14.344 14.092
1.6604361249999897 0.38 -0.277 1.089 9.275 15.511 15.55
1.6724270830000023 0.364 -0.277 1.075 15.481 16.626 17.527
1.679766375000014 0.335 -0.293 1.035 20.573 21.481 14.847
1.6921519580000108 0.306 -0.327 1.032 22.878 22.115 12.046
1.6994017080000106 0.302 -0.376 1.023 21.756 21.725 10.229
1.71142416699999 0.311 -0.393 1.05 19.748 23.015 11.992
1.7186631669999883 0.307 -0.405 1.032 20.634 21.611 13.947
1.730638583000001 0.311 -0.4 1.006 25.015 24.237 15.176
1.7429562080000096 0.31 -0.343 1.028 30.916 27.084 15.565
1.7501947080000093 0.298 -0.33 1.001 27.672 28.71 12.183
1.7623109580000005 0.283 -0.315 0.98 23.115 25.573 10.023
1.7696247080000092 0.245 -0.347 0.957 23.008 25.893 2.924
1.7818739170000129 0.218 -0.357 0.938 27.313 24.198 -2.725
1.7891649580000148 0.189 -0.377 0.922 31.221 22.527 -7.511
1.8012963330000105 0.168 -0.41 0.927 33.191 19.336 -8.702
1.8131522920000123 0.162 -0.414 0.92 33.595 18.244 -7.473
1.8204042920000063 0.149 -0.391 0.903 31.687 18.756 -4.244
1.832717625000015 0.127 -0.368 0.871 29.756 18.267 -0.939
1.8399660830000073 0.114 -0.328 0.846 28.214 17.824 0.412
1.8519862500000102 0.107 -0.289 0.826 28.779 18.321 -0.695
1.859359000000012 0.091 -0.266 0.8 28.13 18.664 -3.015
1.8716273750000028 0.066 -0.245 0.775 26.893 16.802 -3.824
1.8788981669999885 0.048 -0.236 0.74 25.321 16.038 -4.878
1.8909391249999885 0.045 -0.247 0.709 22.779 15.42 -7.198
1.9029681670000116 0.041 -0.266 0.718 22.893 14.656 -10.061
1.9102737080000054 0.016 -0.304 0.721 24.618 14.412 -12.733
1.9222722920000024 0.001 -0.297 0.713 23.893 14.702 -11.214
1.9293571249999957 -0.016 -0.297 0.708 19.901 13.55 -8.305
1.941413333000014 -0.042 -0.278 0.706 17.763 12.29 -5.611
1.9486039580000067 -0.036 -0.255 0.713 15.328 10.351 -3.015
1.9606675420000101 -0.025 -0.2 0.732 12.611 8.458 -1.901
1.9729035830000043 -0.012 -0.172 0.742 10.718 7.092 -3.069
1.9802264170000115 -0.004 -0.137 0.775 7.802 6.092 -5.374
1.9924891249999916 0.004 -0.14 0.799 5.542 6.702 -8.901
1.9998271670000065 0.016 -0.172 0.826 5.267 7.511 -11.168
