Time AX AY AZ GX GY GZ
0.014447459000001217 0.248 -0.124 0.93 2.405 -0.466 -1.786
0.02702016700000165 0.248 -0.117 0.933 1.076 -0.809 -0.901
0.03398558400000162 0.24 -0.121 0.93 0.336 -1.145 -0.122
0.04696179200000117 0.251 -0.122 0.937 -1.298 -1.076 0.649
0.058888750000001266 0.247 -0.132 0.929 -2.71 -0.336 1.153
0.06596825000000095 0.245 -0.159 0.946 -1.275 -0.069 1.427
0.07823654200000085 0.242 -0.143 0.939 -0.473 0.107 -0.168
0.08567720899999998 0.247 -0.125 0.938 -0.893 -0.519 0.573
0.09783362500000159 0.24 -0.126 0.917 -0.458 -0.489 1.168
0.10527820900000151 0.237 -0.128 0.921 1.74 -1.618 1.504
0.11751070900000116 0.235 -0.12 0.926 2.115 -1.725 -0.779
0.12493287500000072 0.25 -0.113 0.936 1.641 -1.481 -1.458
0.13704925000000046 0.259 -0.117 0.949 1.58 -0.756 -2.229
0.14425141700000133 0.262 -0.118 0.967 2.29 0.282 -0.939
0.15663791700000118 0.269 -0.119 0.972 -0.664 1.298 0.679
0.16889066700000122 0.281 -0.128 0.974 -2.198 2.832 1.45
0.1763397090000005 0.285 -0.125 0.978 -3.244 4.122 2.198
0.18863275000000002 0.286 -0.125 0.993 -3.969 4.527 2.885
0.19612566700000045 0.307 -0.141 0.991 -2.87 5.053 1.977
0.20838387500000088 0.313 -0.139 1.006 -2.542 5.641 1.748
0.21564804200000154 0.319 -0.135 0.996 -1.298 6.214 1.198
0.22791416700000156 0.323 -0.126 1.006 -1.092 6.115 1.092
0.23543829200000133 0.336 -0.122 1.0 -2.115 5.053 1.763
0.24821000000000026 0.349 -0.135 1.01 -2.137 5.198 1.038
0.25541004200000117 0.357 -0.105 1.002 -1.557 6.74 2.519
0.267498625 0.36 -0.12 1.019 -0.634 5.794 0.733
0.27500641700000017 0.377 -0.132 1.046 0.626 5.374 1.237
0.2872577920000001 0.381 -0.139 1.045 2.099 6.779 1.55
0.29472154200000134 0.384 -0.126 1.047 1.962 7.374 2.87
0.3070291670000014 0.376 -0.132 1.017 4.557 7.74 2.092
0.31452879200000083 0.347 -0.116 1.007 5.191 5.611 1.191
0.3268330420000005 0.357 -0.133 1.006 7.046 5.046 -2.977
0.33432737500000087 0.37 -0.129 1.018 5.542 4.046 -2.893
0.34672187500000007 0.378 -0.136 1.008 6.397 3.893 -2.107
0.3591422090000016 0.372 -0.101 1.004 4.046 1.71 2.427
0.36651587500000105 0.39 -0.123 0.991 6.237 4.534 1.924
0.3788547090000005 0.385 -0.105 0.957 7.038 5.298 2.817
0.386095375 0.374 -0.096 0.942 10.099 7.206 0.626
0.398633417000001 0.379 -0.074 0.949 9.763 6.87 0.672
0.40612616700000004 0.374 -0.084 0.941 9.252 7.824 1.458
0.4184865000000002 0.397 -0.081 0.963 5.305 8.756 -0.427
0.42564466700000025 0.366 -0.103 0.931 5.008 9.443 -2.031
0.43789937500000065 0.371 -0.084 0.919 5.74 11.168 -2.893
0.44530062500000156 0.353 -0.086 0.908 6.718 11.58 -6.267
0.4574810420000013 0.325 -0.089 0.908 8.863 10.603 -9.893
0.4647499590000006 0.324 -0.065 0.909 7.718 9.198 -11.542
0.47731975000000126 0.317 -0.064 0.914 4.87 7.519 -10.954
0.4843605000000011 0.323 -0.08 0.914 5.595 9.344 -11.71
0.4966122500000001 0.334 -0.094 0.909 6.336 10.397 -9.626
0.5088600840000002 0.313 -0.084 0.885 8.687 9.802 -11.084
0.516133292000001 0.297 -0.086 0.874 8.527 7.733 -14.595
0.5281808340000005 0.299 -0.08 0.874 10.847 5.756 -18.962
0.5356265000000011 0.292 -0.052 0.86 11.679 3.794 -20.183
0.5477387090000008 0.3 -0.031 0.859 8.84 2.809 -20.786
0.5549785840000006 0.296 -0.053 0.853 8.267 1.298 -21.015
0.5673251670000017 0.303 -0.054 0.873 7.168 0.962 -22.664
0.5747605420000017 0.312 -0.059 0.879 6.084 1.458 -22.061
0.586865834000001 0.308 -0.084 0.883 7.534 0.557 -22.969
0.5988184590000003 0.312 -0.112 0.884 10.031 0.824 -26.053
0.6063727090000004 0.306 -0.088 0.888 9.687 2.313 -25.29
0.6183755000000009 0.309 -0.073 0.875 5.061 4.534 -23.427
0.6258930840000012 0.287 -0.063 0.888 0.702 6.634 -22.947
0.6379189170000004 0.268 -0.075 0.905 -2.443 7.008 -21.351
0.6451932920000001 0.269 -0.079 0.898 -4.427 8.015 -21.176
0.6572159170000003 0.258 -0.078 0.884 -3.855 9.267 -22.0
0.6645529170000017 0.235 -0.079 0.855 -3.863 8.771 -24.214
0.677048709000001 0.215 -0.1 0.844 -3.679 5.893 -27.214
0.6889022500000017 0.205 -0.126 0.844 0.595 2.931 -32.351
0.6963625000000011 0.218 -0.118 0.854 4.015 2.229 -33.817
0.708364542 0.21 -0.063 0.834 2.908 1.885 -34.565
0.7156830840000001 0.214 -0.065 0.852 -0.458 2.382 -32.305
0.7279746670000016 0.203 -0.043 0.856 -4.756 4.344 -31.481
0.7352497090000014 0.177 -0.05 0.833 -8.565 4.443 -28.908
0.7472472090000011 0.177 -0.08 0.829 -7.611 2.511 -28.328
0.7546266670000001 0.158 -0.096 0.83 -4.863 1.099 -27.107
0.7666912500000009 0.177 -0.102 0.842 -4.061 0.794 -27.969
0.7789696670000001 0.165 -0.081 0.828 -5.069 1.565 -28.534
0.7861910840000004 0.142 -0.081 0.822 -8.916 2.206 -27.13
0.7982447090000004 0.122 -0.063 0.815 -11.305 2.756 -28.611
0.8050326250000008 0.106 -0.066 0.797 -10.0 2.198 -29.374
0.8175137920000015 0.101 -0.083 0.806 -7.595 1.939 -30.985
0.824812875000001 0.1 -0.097 0.816 -7.221 2.229 -31.618
0.8367700840000012 0.085 -0.129 0.831 -7.115 2.405 -29.282
0.8489082920000008 0.055 -0.127 0.853 -8.71 0.481 -27.504
0.8561228750000005 0.039 -0.133 0.806 -8.191 -4.496 -26.252
0.8681720420000012 0.052 -0.103 0.794 -9.29 -6.496 -25.733
0.8752405420000002 0.057 -0.079 0.795 -11.336 -8.191 -27.0
0.8874632500000015 0.059 -0.069 0.779 -12.321 -7.527 -29.023
0.8944224590000012 0.041 -0.076 0.767 -14.626 -7.16 -30.649
0.9064979170000012 0.04 -0.101 0.808 -16.87 -7.733 -29.931
0.9185406250000003 0.02 -0.154 0.828 -15.916 -8.229 -28.298
0.9255967090000006 0.024 -0.146 0.852 -17.679 -7.733 -25.58
0.937423625000001 0.02 -0.106 0.826 -18.618 -6.473 -24.008
0.9442226250000001 0.027 -0.119 0.881 -22.336 -6.885 -23.763
0.9566945000000011 0.015 -0.113 0.824 -21.847 -7.702 -24.504
0.9685156250000002 -0.021 -0.12 0.803 -18.824 -10.336 -26.214
0.9756577500000017 -0.008 -0.125 0.809 -20.519 -13.992 -25.252
0.9874414170000012 0.006 -0.115 0.806 -22.344 -14.924 -25.504
0.9948024590000006 0.017 -0.144 0.84 -24.031 -14.718 -25.382
1.006147459000001 0.025 -0.176 0.868 -22.336 -15.107 -23.405
1.0180465420000004 0.034 -0.147 0.877 -21.321 -14.641 -21.511
1.0248472500000005 0.03 -0.135 0.858 -20.45 -14.069 -15.42
1.0370295840000008 0.042 -0.147 0.862 -19.519 -15.244 -13.656
1.0490616250000002 0.038 -0.128 0.891 -19.58 -16.504 -15.359
1.055734084000001 0.051 -0.12 0.901 -25.137 -18.527 -13.977
1.0678476250000006 0.063 -0.178 0.908 -23.824 -20.924 -16.87
1.074488500000001 0.104 -0.188 0.959 -21.641 -15.351 -10.534
1.0867877920000009 0.108 -0.164 0.95 -23.267 -12.153 -11.855
1.0988056670000006 0.051 -0.222 0.947 -20.298 -15.122 -13.183
1.1055712090000007 0.136 -0.183 1.047 -13.618 -14.412 -16.725
1.1178360000000005 0.077 -0.171 0.966 -28.458 -12.947 -7.87
1.1244970420000016 0.031 -0.194 0.936 -32.076 -12.359 -5.611
1.1368550420000005 0.043 -0.213 0.935 -33.626 -15.153 -8.412
1.1490257920000015 0.129 -0.206 0.955 -32.496 -19.725 -13.298
1.155698042000001 0.017 -0.294 0.977 -30.565 -18.992 -13.466
1.1680190840000009 0.126 -0.225 1.025 -28.313 -12.603 -2.389
1.1747133340000016 0.174 -0.217 1.002 -27.115 -10.649 1.092
1.1871896670000002 0.134 -0.184 1.028 -31.168 -10.0 3.954
1.1930683340000012 0.113 -0.181 0.983 -34.718 -8.282 9.336
1.206702709 0.096 -0.206 0.949 -31.656 -8.756 7.031
1.218568459 0.092 -0.239 0.979 -29.771 -12.397 7.328
1.2256293750000005 0.1 -0.285 0.994 -24.863 -20.069 5.924
1.237670834000001 0.164 -0.299 1.054 -25.023 -14.427 10.481
1.2445737500000007 0.173 -0.298 1.029 -23.634 -13.115 11.412
1.2566853340000002 0.15 -0.266 1.025 -26.611 -13.061 11.221
1.2688957090000006 0.147 -0.23 1.01 -26.092 -16.168 12.542
1.2754353340000009 0.169 -0.219 1.005 -27.641 -17.023 14.87
1.2876886250000013 0.177 -0.251 0.999 -25.649 -15.962 14.641
1.2943230420000003 0.195 -0.254 1.035 -25.802 -14.0 15.275
1.3065538340000007 0.196 -0.278 1.071 -29.122 -12.779 18.092
1.3186872090000001 0.187 -0.297 1.048 -25.275 -14.588 22.458
1.3255904590000007 0.227 -0.312 1.083 -23.794 -14.092 25.26
1.3376695000000005 0.226 -0.318 1.087 -20.802 -14.603 26.641
1.3447317090000013 0.286 -0.311 1.127 -18.351 -12.527 28.656
1.356656667000001 0.236 -0.303 1.063 -17.481 -14.725 26.565
1.3689135000000014 0.251 -0.275 1.055 -17.26 -14.977 28.489
1.3757072920000013 0.288 -0.273 1.018 -14.153 -14.015 28.588
1.3881698750000009 0.294 -0.282 1.038 -11.977 -12.588 22.458
1.3950072500000008 0.303 -0.286 1.043 -6.863 -11.427 19.985
1.4071279590000003 0.328 -0.241 1.086 -12.405 -9.931 22.656
1.4138104170000005 0.353 -0.23 1.043 -13.687 -3.504 28.489
1.426144584000001 0.306 -0.285 1.103 -11.573 -4.0 32.802
1.438411834 0.323 -0.291 1.083 -10.336 -2.969 38.733
1.4454404590000003 0.302 -0.322 1.029 -7.893 -3.13 40.855
1.4578735840000014 0.296 -0.323 1.021 -6.313 -2.321 35.275
1.4648850000000007 0.304 -0.328 1.007 -3.962 -2.679 29.878
1.4770828750000007 0.312 -0.291 0.997 0.382 -0.779 26.023
1.484426625000001 0.343 -0.35 1.009 5.947 4.214 19.87
1.4969555000000003 0.4 -0.262 1.042 7.061 15.466 10.55
1.5040319170000007 0.335 -0.24 1.062 5.45 14.26 16.779
1.5164887920000005 0.351 -0.25 1.047 4.198 9.611 21.214
1.528916959 0.339 -0.251 1.016 3.817 5.954 25.168
1.5363620420000004 0.34 -0.245 0.986 2.473 1.809 26.718
1.5488415 0.327 -0.303 1.047 3.779 2.656 26.947
1.5558690840000011 0.393 -0.264 1.03 2.229 2.924 26.214
1.5682319590000002 0.388 -0.263 1.015 0.038 4.603 27.725
1.5754138750000006 0.396 -0.259 1.019 -1.298 5.748 29.305
1.588780292000001 0.384 -0.297 1.017 1.336 3.176 32.71
1.5949586670000002 0.392 -0.29 0.994 5.466 -1.145 36.786
1.6072574170000014 0.394 -0.301 0.974 10.305 -0.282 29.847
1.6145432500000005 0.401 -0.27 0.974 10.321 0.924 28.221
1.626921042000001 0.4 -0.267 0.976 9.443 1.031 27.206
1.6338811670000002 0.413 -0.247 0.99 7.672 2.611 27.26
1.6464295 0.405 -0.245 0.974 5.55 2.702 26.634
1.6589057090000008 0.39 -0.293 0.968 8.076 0.084 24.275
1.6659062500000008 0.4 -0.274 0.994 11.771 -1.252 23.672
1.6784173340000006 0.417 -0.285 0.99 13.458 -1.305 22.763
1.68544975 0.433 -0.294 1.018 15.817 0.427 23.458
1.6980465000000002 0.421 -0.266 1.004 16.221 1.588 25.985
1.704986625 0.44 -0.256 0.997 15.855 2.298 25.26
1.717375542000001 0.427 -0.261 0.982 13.962 2.145 24.321
1.7244782500000007 0.41 -0.278 0.982 15.122 2.145 23.55
1.7367145420000014 0.372 -0.288 1.0 15.237 -0.42 15.382
1.7443002920000001 0.425 -0.269 0.982 17.069 0.473 22.847
1.7563417920000006 0.443 -0.264 1.005 13.221 3.221 24.924
1.7686100000000007 0.416 -0.253 0.964 11.695 6.13 25.656
1.7758579170000015 0.374 -0.258 0.95 12.969 5.252 23.71
1.788143625 0.392 -0.244 0.942 15.511 3.466 23.115
1.795424500000001 0.363 -0.238 0.944 15.992 0.802 19.046
1.8078851250000003 0.381 -0.226 0.943 16.969 -1.244 18.924
1.8147825420000014 0.388 -0.211 0.946 17.947 -2.191 16.588
1.8269554170000006 0.399 -0.231 0.927 19.305 -1.305 12.237
1.8339719170000013 0.417 -0.198 0.934 17.115 0.962 11.191
1.8467577090000002 0.386 -0.206 0.955 12.122 4.16 15.084
1.858946542 0.392 -0.217 0.923 10.611 3.954 14.489
1.866116625 0.364 -0.235 0.936 10.626 1.473 15.695
1.8784393340000012 0.379 -0.247 0.929 17.763 1.664 12.924
1.8854660840000008 0.374 -0.258 0.943 17.817 -0.603 12.603
1.897745542000001 0.378 -0.24 0.943 13.771 -2.13 10.237
1.9048541250000017 0.395 -0.243 0.93 11.84 -0.542 10.573
1.9172695840000014 0.418 -0.246 0.925 14.687 2.656 8.328
1.9245305000000013 0.369 -0.257 0.934 14.702 2.832 12.122
1.9368655000000015 0.388 -0.228 0.91 12.176 4.641 13.931
1.9426883340000014 0.37 -0.231 0.909 11.534 6.412 13.412
1.9563550420000002 0.368 -0.226 0.918 5.595 7.145 12.344
1.9686350000000008 0.474 -0.402 0.953 10.84 15.076 11.84
1.9762065 0.32 -0.295 0.927 6.237 5.298 7.321
1.9881631670000015 0.38 -0.295 0.91 13.305 8.16 12.748
1.995441542 0.365 -0.312 0.897 21.244 11.565 12.779
2.007740042 0.347 -0.247 0.901 21.473 11.565 6.679
