Time AX AY AZ GX GY GZ
0.014329166999999643 -0.024 -0.21 0.991 -2.031 -1.069 -0.893
0.0267836250000002 -0.02 -0.21 0.979 -0.099 -1.092 -0.595
0.03366308300000043 -0.017 -0.208 0.972 1.489 -1.496 -1.359
0.04610916699999734 -0.01 -0.209 0.985 1.672 -1.336 -0.863
0.05865783299999805 -0.012 -0.21 0.973 1.55 -0.504 0.0
0.06565766700000353 -0.003 -0.202 0.971 1.893 -0.13 -0.107
0.0780950830000009 -0.006 -0.196 0.966 1.092 0.137 -0.183
0.08531412500000357 0.006 -0.194 0.977 1.42 0.443 -0.206
0.09790495800000087 -0.006 -0.198 0.973 0.695 0.679 -0.328
0.1051528750000017 0.005 -0.186 0.962 0.183 0.336 -0.855
0.11748212500000221 -0.007 -0.199 0.98 -0.847 -0.565 -0.298
0.12475620800000087 -0.003 -0.2 0.973 -1.244 -0.191 -0.252
0.13702175000000238 -0.008 -0.208 0.965 -1.969 -1.137 -0.901
0.14429050000000387 -0.01 -0.216 0.964 -1.519 -2.298 -1.603
0.156310916999999 -0.016 -0.223 0.968 -0.435 -1.725 -1.611
0.1685803330000013 -0.016 -0.213 0.963 0.985 -0.183 -0.527
0.17607304199999874 -0.004 -0.213 0.969 1.779 0.885 0.038
0.1883630829999987 -0.003 -0.201 0.964 3.069 1.244 -0.336
0.19565512500000182 -0.0 -0.189 0.967 3.053 1.939 -0.58
0.207878749999999 -0.004 -0.188 0.967 2.053 1.855 -0.534
0.21539545800000326 0.002 -0.194 0.962 -0.397 -0.015 -1.412
0.22743400000000236 -0.004 -0.206 0.969 -2.435 -1.542 -1.947
0.2347047499999988 -0.006 -0.214 0.975 -2.695 -1.458 -1.786
0.24678379200000222 -0.016 -0.205 0.98 -1.855 -0.885 -1.0
0.25429033300000015 -0.013 -0.214 0.987 0.435 -0.183 -1.008
0.26653966700000353 -0.01 -0.207 0.994 2.0 0.939 -1.046
0.27247554200000224 -0.006 -0.198 1.005 3.397 2.267 -1.702
0.28605841699999957 -0.011 -0.208 1.007 7.824 2.13 -4.099
0.29859587500000373 0.0 -0.197 0.996 8.603 1.427 -6.71
0.3061105000000026 0.001 -0.207 0.998 8.496 0.962 -7.931
0.3183476669999976 -0.003 -0.212 0.976 7.435 2.466 -7.214
0.3258824580000024 0.002 -0.189 0.955 5.031 2.489 -6.84
0.3381087500000035 0.008 -0.188 0.964 5.092 2.214 -5.366
0.3456412920000034 0.009 -0.196 0.965 5.962 2.489 -1.145
0.357880999999999 -0.005 -0.167 0.959 3.664 1.122 0.42
0.3654125420000014 -0.014 -0.186 0.976 0.244 1.954 -0.58
0.3776762500000004 -0.007 -0.188 0.974 -2.176 0.687 -0.695
0.38501175000000387 -0.021 -0.199 0.983 -4.87 -1.885 -1.466
0.39699058299999734 -0.017 -0.193 0.991 -5.878 -3.42 -1.435
0.4045042919999986 0.039 -0.171 0.989 -5.519 -1.847 6.153
0.4165775000000025 -0.025 -0.177 1.022 -6.221 -5.176 -1.817
0.4285556669999977 -0.02 -0.184 1.052 -5.336 -5.779 -3.473
0.4358785829999974 -0.008 -0.205 1.091 -5.656 -9.855 -5.45
0.4481269999999995 0.014 -0.218 1.123 -6.626 -11.664 -4.076
0.4551915830000013 0.026 -0.197 1.193 -8.244 -12.748 -2.542
0.467610042000004 0.059 -0.198 1.234 -12.053 -10.458 -4.29
0.4747867499999998 0.076 -0.222 1.277 -21.282 -8.511 -5.374
0.4868515000000002 0.05 -0.272 1.389 -29.389 -1.382 -1.122
0.49434225000000254 0.005 -0.268 1.408 -26.023 9.908 5.893
0.5063717080000032 -0.004 -0.287 1.421 -18.366 21.595 15.527
0.5183573750000008 0.007 -0.248 1.387 -11.282 29.061 21.954
0.5256287919999991 -0.008 -0.178 1.325 -0.305 30.298 22.527
0.5378921670000025 0.005 -0.131 1.308 6.053 26.756 18.779
0.5451644999999985 0.019 -0.063 1.283 10.618 20.16 10.061
0.5576818330000037 0.034 0.018 1.277 12.931 8.84 -1.42
0.5649529169999994 0.04 0.039 1.276 12.504 -0.939 -14.588
0.5770184169999979 0.013 -0.041 1.35 10.107 -9.015 -18.282
0.5843153750000027 -0.033 -0.146 1.35 -7.824 -13.779 -16.153
0.596464791999999 -0.006 -0.424 1.416 -8.427 -20.198 6.504
0.6083399999999983 -0.103 -0.4 1.426 -7.626 -18.641 14.542
0.6156312920000033 -0.123 -0.321 1.363 10.183 -6.611 25.458
0.6279493330000037 -0.053 -0.277 1.288 23.015 0.55 34.42
0.6352182079999977 -0.001 -0.189 1.239 18.26 -8.435 35.214
0.6472727920000025 0.014 -0.099 1.197 12.649 -13.641 24.71
0.6545499169999971 -0.015 -0.106 1.177 9.359 -20.756 13.55
0.6668121249999999 0.054 -0.105 1.146 6.794 -21.71 12.267
0.674062499999998 0.045 -0.145 1.155 3.435 -18.908 13.42
0.6863445420000005 0.025 -0.236 1.15 1.229 -18.71 17.74
0.6983589170000002 -0.006 -0.272 1.122 6.328 -16.107 22.389
0.7056602079999976 -0.009 -0.345 1.152 9.924 -12.595 26.603
0.717934249999999 -0.01 -0.298 1.138 8.359 -2.366 36.046
0.7252577080000009 0.026 -0.266 1.008 16.42 8.351 45.458
0.7374681249999995 -0.007 -0.172 1.053 18.534 14.595 40.511
0.7447228329999973 0.054 -0.136 0.939 29.153 8.634 20.855
0.7569851249999999 0.038 -0.113 1.025 22.061 1.244 12.908
0.7645222499999988 -0.16 -0.077 0.936 13.176 -2.29 8.992
0.7767818330000011 0.021 -0.129 1.052 13.397 -3.771 9.137
0.7841442920000006 -0.033 -0.144 1.085 15.176 -1.061 9.939
0.7963780830000005 -0.058 -0.243 1.1 19.977 4.863 12.489
0.8083298749999983 -0.062 -0.255 1.086 27.069 8.168 14.84
0.8156223330000003 -0.039 -0.205 1.034 28.328 11.847 21.176
0.8279148749999976 -0.061 -0.191 1.013 30.267 11.023 21.344
0.8351860000000002 -0.034 -0.17 1.005 28.443 9.427 17.702
0.8474324580000001 -0.048 -0.16 1.032 24.351 5.611 13.832
0.8547872079999976 -0.081 -0.217 1.036 31.153 -1.237 7.626
0.8670095419999981 -0.098 -0.224 1.067 37.351 -6.244 4.412
0.8743094169999992 -0.101 -0.272 1.053 45.557 -8.802 -3.099
0.886427083000001 -0.09 -0.252 1.031 44.809 -13.122 -8.824
0.8981135000000009 -0.048 -0.207 0.941 47.847 -12.748 -11.649
0.9054339170000034 -0.046 -0.189 0.933 46.863 -17.679 -15.588
0.9173018330000033 -0.024 -0.197 0.887 57.939 -29.557 -18.328
0.9245119170000038 -0.014 -0.093 0.898 65.267 -25.046 -13.786
0.9365562500000024 -0.019 -0.142 0.936 57.122 -21.153 -5.366
0.9485709169999978 -0.007 -0.125 0.936 40.786 -21.55 -2.87
0.9556047920000026 -0.007 -0.083 0.913 32.015 -17.588 -0.176
0.9679569170000022 0.001 -0.076 0.922 28.595 -15.534 4.397
0.9750028329999978 0.002 -0.051 0.903 21.885 -13.359 9.145
0.9875551670000036 0.014 -0.021 0.89 17.031 -10.947 11.626
0.9947480000000013 0.007 -0.017 0.855 13.977 -14.336 12.527
1.0067748749999978 0.009 -0.052 0.855 21.435 -21.389 9.626
1.0143497919999973 0.0 -0.089 0.903 35.527 -24.13 6.0
1.0263114999999985 0.013 -0.066 0.917 33.771 -15.611 9.511
1.0386521249999987 0.019 -0.02 0.855 24.061 -12.443 13.733
1.045687208000004 -0.022 -0.006 0.868 16.718 -13.053 -3.573
1.0579188749999986 0.009 -0.032 0.838 17.466 -13.878 6.366
1.0652045 0.011 -0.033 0.844 21.618 -14.977 3.901
1.0775015000000039 0.033 -0.038 0.834 17.649 -17.198 5.153
1.0847345419999996 0.033 -0.04 0.855 12.0 -14.924 11.031
1.097024417 0.048 -0.066 0.818 1.649 -17.603 13.557
1.104403750000003 0.04 -0.09 0.86 -5.618 -17.565 17.443
1.1163360830000002 0.055 -0.108 0.832 -13.504 -19.053 15.855
1.128350042000001 0.048 -0.077 0.818 -18.542 -18.855 15.84
1.1353932920000034 0.028 -0.071 0.809 -13.924 -18.832 12.26
1.147663792000003 0.039 -0.065 0.825 -0.74 -14.786 10.962
1.1547160000000005 -0.015 -0.07 0.88 -0.588 -14.542 -4.603
1.1672884580000016 0.069 -0.052 0.823 7.687 -8.115 5.084
1.1747684170000028 0.069 -0.052 0.831 9.756 -8.634 2.458
1.1869272500000037 0.102 -0.004 0.816 4.153 -13.55 -3.061
1.1943695830000038 0.095 -0.022 0.844 0.031 -14.336 -1.618
1.2062926669999996 0.101 -0.072 0.883 1.947 -16.046 -2.221
1.2185781250000005 0.123 -0.028 0.91 2.29 -11.198 -0.626
1.2261002079999983 0.12 -0.013 0.882 1.733 -8.046 0.603
1.2383111250000027 0.117 0.032 0.899 6.725 -5.649 -3.786
1.2459320000000034 0.103 0.087 0.893 8.595 -4.275 -7.618
1.2581287920000008 0.115 0.004 0.9 8.053 -15.611 -18.115
1.2654306250000005 0.114 -0.011 0.918 8.176 -17.0 -18.359
1.2774356250000025 0.107 -0.028 0.909 3.962 -14.802 -20.351
1.2844822500000035 0.115 -0.078 0.928 -3.618 -16.237 -18.084
1.2966893749999997 0.113 -0.072 0.895 -14.26 -12.145 -16.473
1.3040982079999992 0.108 -0.102 0.963 -11.214 -4.969 -9.832
1.3160919580000012 0.146 -0.145 0.965 -11.794 0.015 -3.542
1.328321833000004 0.147 -0.084 0.946 -4.397 4.824 -1.466
1.3358546669999996 0.124 -0.08 0.944 12.557 8.206 2.046
1.3482217500000004 0.11 -0.053 0.914 20.924 11.046 6.412
1.3556312079999984 0.107 -0.036 0.828 22.992 6.718 2.313
1.3678983329999994 0.104 -0.027 0.82 18.229 -6.008 -2.458
1.3754095419999999 0.108 -0.04 0.834 9.046 -6.389 -2.473
1.387714250000002 0.093 -0.086 0.875 4.282 -13.382 0.031
1.3949807919999984 0.11 -0.057 0.905 -2.29 -11.397 4.824
1.4072556670000012 0.124 -0.026 0.893 -5.618 -2.611 11.099
1.414744958 0.124 0.001 0.912 2.481 1.389 11.947
1.427254916999999 0.127 0.021 0.898 8.466 2.527 9.656
1.4347650420000022 0.112 0.056 0.828 11.779 -0.649 3.985
1.4471309170000026 0.094 0.113 0.809 13.252 -7.733 -4.481
1.4543184999999994 0.096 0.118 0.852 11.0 -9.962 -10.435
1.4666552079999988 0.104 0.113 0.894 7.397 -10.939 -14.771
1.4724165000000013 0.104 0.053 0.896 6.534 -11.298 -17.603
1.4861151249999978 0.107 -0.029 0.894 8.779 -7.107 -14.87
1.4983586250000016 0.133 -0.048 0.878 10.473 0.992 -9.092
1.5058570830000022 0.115 -0.044 0.874 6.023 7.87 -1.977
1.5181051670000016 0.116 -0.027 0.843 7.42 6.718 -2.901
1.5256504999999976 0.112 0.015 0.877 10.069 3.756 -5.359
1.538135167 0.108 0.035 0.862 3.267 -1.672 -6.832
1.5456201670000027 0.075 0.035 0.875 3.786 -2.534 -4.786
1.557938667000002 0.064 0.034 0.883 5.053 0.687 -3.069
1.5656295830000033 0.061 0.02 0.874 6.58 2.122 -0.542
1.577872708000001 0.042 0.009 0.857 11.267 4.298 -0.595
1.5852182080000006 0.047 0.004 0.865 10.076 3.557 -1.458
1.5976592499999995 0.06 0.04 0.876 11.244 1.725 -4.298
1.6048564580000004 0.086 0.045 0.873 7.58 -2.053 -7.137
1.6175289170000013 0.095 0.079 0.893 1.855 -5.275 -6.252
1.6244847500000006 0.104 0.089 0.889 -1.916 -4.55 -2.084
1.6373551670000026 0.094 0.095 0.889 -1.725 -1.26 1.267
1.644559000000001 0.09 0.072 0.901 -5.534 -0.229 4.519
1.6571237080000003 0.077 0.042 0.927 -9.489 -2.908 4.672
1.6643139170000012 0.09 0.063 0.903 -15.458 -6.458 1.908
1.6768267500000036 0.105 0.082 0.872 -18.511 -5.305 0.107
1.683795791999998 0.106 0.07 0.867 -12.626 -4.573 -3.496
1.6963244169999996 0.098 0.04 0.912 -3.603 -2.58 -3.603
1.703591582999998 0.101 0.031 0.908 4.809 0.221 -4.824
1.7163400829999986 0.104 0.045 0.881 8.74 -1.191 -6.153
1.7236504170000018 0.094 0.067 0.916 7.496 -0.26 -7.252
1.736142583000003 0.097 0.026 0.946 3.221 -1.901 -4.29
1.7436584579999987 0.105 0.006 0.967 2.084 0.641 0.885
1.7563792919999983 0.102 0.011 0.958 2.473 3.992 5.237
1.7637642079999978 0.115 0.01 0.951 0.031 7.573 9.252
1.7765352079999985 0.114 -0.002 0.934 -0.504 6.351 7.153
1.784055667000004 0.099 0.03 0.95 -0.832 5.198 6.435
1.7965808750000036 0.091 0.05 0.934 4.618 5.168 4.45
1.8040473750000032 0.091 0.049 0.942 10.504 4.275 2.214
1.8166739580000026 0.096 0.068 0.953 9.55 4.13 2.702
1.824350416999998 0.092 0.084 0.959 2.947 3.237 2.656
1.836763750000003 0.112 0.059 0.954 2.626 0.031 0.756
1.8442891669999995 0.11 0.035 0.985 6.687 -0.901 0.221
1.8567718749999997 0.121 0.016 1.008 7.206 -1.229 -0.176
1.8642759170000005 0.115 0.037 0.992 6.16 -0.153 6.374
1.8767658750000038 0.099 0.048 0.982 6.573 2.137 5.29
1.8845659999999995 0.107 0.078 0.982 4.588 5.511 6.786
1.897007000000002 0.111 0.086 0.976 3.847 5.939 7.817
1.904488833000002 0.114 0.099 0.977 0.031 4.489 7.847
1.9169992500000035 0.116 0.099 0.975 -2.237 -0.809 3.649
1.9242781250000007 0.105 0.087 0.993 -1.878 -4.198 -0.504
1.936518833000001 0.112 0.076 0.999 -2.672 -5.443 -3.649
1.944045416999998 0.102 0.07 1.002 -1.198 -3.382 -4.267
1.956291125 0.098 0.054 1.007 -1.145 -3.107 -3.664
1.9641664170000013 0.096 0.025 1.014 0.069 1.13 0.137
1.9763169169999983 0.108 -0.018 1.006 0.794 5.427 3.87
1.9840372920000036 0.117 -0.009 1.003 1.374 7.473 8.221
1.996585291999999 0.108 0.003 0.987 3.015 6.901 8.366
2.004024292000004 0.099 0.021 1.003 2.863 3.45 6.344
