Time AX AY AZ GX GY GZ
2e-06 0.198 -0.13 0.982 2.901 7.817 5.221
0.001743 0.202 -0.145 0.983 2.58 6.015 3.359
0.002722 0.2 -0.145 0.983 3.008 4.992 1.313
0.00333 0.205 -0.135 0.983 3.145 4.031 -0.183
0.003931 0.213 -0.127 0.978 3.053 3.084 -1.023
0.004524 0.208 -0.128 0.986 2.947 2.916 -2.366
0.005035 0.207 -0.133 0.963 3.298 2.244 -2.947
0.005545 0.2 -0.129 0.959 4.092 3.206 -1.71
0.006061 0.202 -0.117 0.964 3.298 3.817 -0.947
0.006556 0.197 -0.116 0.97 2.366 4.29 -0.672
0.006988 0.193 -0.126 0.959 2.412 4.748 -1.344
0.007419 0.192 -0.128 0.982 2.443 5.099 -1.817
0.007977 0.188 -0.134 0.978 3.191 5.802 -2.321
0.008761 0.188 -0.143 0.981 3.069 5.191 -4.779
0.009497 0.182 -0.148 0.99 4.672 6.061 -5.344
0.01012 0.187 -0.132 0.984 5.557 5.817 -4.947
0.01071 0.187 -0.136 0.996 5.832 5.985 -3.863
0.011241 0.192 -0.131 0.998 15.038 3.282 -3.237
0.011774 0.18 -0.149 0.986 13.206 7.038 0.366
0.012326 0.185 -0.137 0.988 8.397 9.084 3.084
0.013 0.185 -0.136 1.006 9.053 9.008 4.443
0.013442 0.179 -0.122 1.004 10.565 9.42 4.336
0.013911 0.172 -0.114 1.006 13.328 11.466 6.595
0.014354 0.19 -0.12 0.997 9.969 8.702 5.832
0.014847 0.185 -0.1 0.988 10.137 9.435 5.725
0.0153 0.18 -0.105 0.986 10.351 9.267 6.84
0.015794 0.184 -0.105 0.991 10.382 8.427 5.634
0.016255 0.175 -0.118 0.988 10.336 6.901 4.809
0.016776 0.167 -0.101 0.988 10.519 6.641 5.008
0.017228 0.178 -0.111 0.978 10.672 6.214 4.84
0.017704 0.164 -0.099 0.991 9.679 5.084 3.206
0.018149 0.164 -0.099 0.969 8.046 5.863 4.26
0.01857 0.169 -0.1 0.962 7.008 6.656 5.13
0.01898 0.177 -0.098 0.979 5.939 7.298 5.71
0.019379 0.167 -0.1 0.97 6.87 8.015 6.473
0.019817 0.169 -0.101 0.978 6.931 7.954 6.824
0.02021 0.167 -0.101 0.982 7.588 7.802 6.763
0.020594 0.171 -0.102 0.984 8.122 7.344 7.206
0.021015 0.165 -0.093 0.98 7.481 7.328 7.74
0.02141 0.156 -0.097 0.979 6.046 6.824 8.931
0.022041 0.163 -0.107 0.998 5.084 5.756 7.573
0.022502 0.159 -0.114 0.988 5.191 5.405 7.71
0.022942 0.162 -0.112 0.99 3.939 4.794 7.832
0.023377 0.163 -0.106 1.007 3.191 3.618 8.229
0.023818 0.167 -0.1 1.005 2.794 2.29 7.618
0.024263 0.161 -0.101 0.994 3.802 1.038 7.679
0.024789 0.163 -0.103 0.991 3.908 0.489 7.695
0.025167 0.166 -0.098 0.976 3.878 0.427 9.695
0.02555 0.167 -0.093 0.982 4.107 0.473 11.298
0.025929 0.16 -0.096 0.984 4.809 0.702 13.435
0.026307 0.154 -0.105 0.992 5.924 0.962 15.756
0.026646 0.154 -0.108 0.999 8.702 1.557 19.252
0.026978 0.16 -0.118 1.027 11.496 1.282 23.038
0.027316 0.157 -0.109 1.044 10.656 -0.29 24.183
0.027687 0.16 -0.111 1.048 9.099 -3.069 21.282
0.028008 0.168 -0.113 1.043 9.069 -5.939 17.099
0.028333 0.172 -0.113 1.027 9.939 -7.878 12.58
0.028666 0.176 -0.105 1.007 8.855 -5.573 11.863
0.029154 0.17 -0.096 0.986 6.198 -0.87 14.26
0.029501 0.173 -0.088 0.982 5.618 2.519 17.985
0.029832 0.177 -0.094 0.975 5.557 8.046 21.985
0.030159 0.17 -0.098 0.992 5.191 11.588 24.534
0.030488 0.171 -0.11 0.999 4.595 12.931 24.336
0.030806 0.179 -0.136 1.011 6.443 12.275 20.855
0.031128 0.175 -0.145 1.026 8.29 10.916 15.695
0.031496 0.17 -0.127 1.022 6.672 9.511 11.817
0.031813 0.16 -0.129 1.012 3.725 8.504 9.573
0.032126 0.165 -0.13 1.001 2.366 7.863 5.939
0.032446 0.151 -0.128 0.988 1.023 9.176 0.84
0.03277 0.163 -0.11 0.96 -2.076 10.901 -2.794
0.033141 0.158 -0.086 0.943 -3.649 11.985 -3.282
0.033492 0.157 -0.069 0.94 -2.489 11.191 -4.473
0.033821 0.158 -0.069 0.923 -1.496 11.237 -4.519
0.034161 0.148 -0.063 0.922 -1.557 12.244 -3.221
0.034491 0.144 -0.073 0.917 -0.534 12.397 -0.916
0.034846 0.142 -0.08 0.928 1.023 11.13 -1.42
0.035167 0.138 -0.086 0.942 2.046 9.618 -3.023
0.035482 0.136 -0.102 0.951 -0.122 8.809 -4.0
0.035812 0.142 -0.11 0.96 -3.176 8.672 -4.244
0.036117 0.137 -0.112 0.986 -3.511 6.779 -7.45
0.036427 0.136 -0.113 0.978 -3.542 6.626 -9.786
0.036747 0.139 -0.112 0.99 -4.489 8.168 -10.183
0.037047 0.14 -0.106 0.972 -3.924 10.458 -8.214
0.037345 0.145 -0.109 0.982 -3.221 13.13 -6.504
0.037671 0.146 -0.096 0.99 -2.733 14.26 -5.435
0.038027 0.146 -0.093 1.001 -1.45 16.153 -3.542
0.03843 0.14 -0.084 1.019 0.687 18.382 -1.389
0.038735 0.137 -0.095 1.015 1.038 19.481 0.992
0.039033 0.123 -0.115 1.028 -0.275 21.664 2.305
0.039326 0.135 -0.121 1.037 0.809 20.687 1.863
0.039615 0.117 -0.15 1.042 -5.496 21.679 -1.527
0.039908 0.112 -0.137 1.037 -4.626 19.588 -1.649
0.040207 0.104 -0.154 1.046 -4.244 18.901 -2.244
0.040495 0.109 -0.146 1.042 -5.695 17.435 -3.634
0.040796 0.108 -0.129 1.045 -1.771 13.847 -5.71
0.041084 0.113 -0.131 1.032 -0.84 12.672 -7.374
0.04139 0.099 -0.12 1.011 1.176 10.031 -7.969
0.041694 0.101 -0.126 0.99 0.794 7.695 -9.344
0.041989 0.108 -0.123 0.992 1.618 4.198 -11.252
0.042287 0.093 -0.113 0.985 3.221 3.282 -11.191
0.042622 0.102 -0.101 0.976 3.573 2.641 -9.237
0.042962 0.105 -0.107 0.975 4.305 2.672 -8.122
0.043277 0.106 -0.11 0.97 5.038 3.725 -6.0
0.043604 0.104 -0.105 0.981 6.397 2.015 -5.695
0.043913 0.1 -0.109 0.999 8.321 2.137 -5.954
0.044206 0.098 -0.107 0.986 8.305 3.908 -3.649
0.04448 0.106 -0.109 0.987 8.122 3.099 -3.053
0.044762 0.111 -0.115 0.999 8.275 2.58 -3.053
0.045038 0.113 -0.115 1.006 9.511 1.573 -3.038
0.045332 0.116 -0.121 1.024 12.321 -0.229 -3.282
0.045604 0.114 -0.111 1.016 13.679 -1.832 -2.992
0.045896 0.111 -0.108 1.008 12.626 -3.099 -2.55
0.046208 0.112 -0.1 0.997 11.496 -4.321 -3.206
0.046603 0.112 -0.1 0.98 9.511 -4.794 -4.366
0.046886 0.109 -0.104 0.96 7.435 -1.832 -2.412
0.04717 0.114 -0.109 0.96 6.55 2.824 1.74
0.047471 0.126 -0.096 0.976 6.656 6.29 4.076
0.047744 0.126 -0.098 0.997 7.145 7.42 4.214
0.048022 0.126 -0.109 1.004 8.702 7.511 4.763
0.048302 0.109 -0.105 1.004 9.374 7.725 5.649
0.048587 0.107 -0.1 1.013 9.511 6.305 6.473
0.048866 0.106 -0.103 1.025 10.641 4.443 6.321
0.049137 0.103 -0.094 1.021 10.611 2.061 5.206
0.049412 0.101 -0.102 1.016 9.771 -0.779 3.252
0.049699 0.109 -0.109 1.012 9.924 -2.275 1.282
0.049981 0.104 -0.111 1.003 10.153 -3.649 0.214
0.050261 0.114 -0.099 1.008 10.565 -5.634 -0.55
0.050532 0.105 -0.094 1.004 10.824 -6.992 -3.115
0.050818 0.112 -0.089 0.994 10.504 -8.244 -4.84
0.051086 0.109 -0.082 0.99 10.382 -11.115 -7.908
0.051361 0.117 -0.074 0.976 9.374 -12.931 -10.336
0.05164 0.111 -0.068 0.958 6.366 -14.779 -10.947
0.051908 0.117 -0.081 0.969 10.061 -16.382 -9.328
0.052174 0.16 -0.117 1.052 25.405 -24.962 -17.359
0.052475 0.122 -0.108 0.96 6.198 -16.489 -16.901
0.052767 0.131 -0.064 0.955 15.053 -20.931 -9.573
0.053049 0.15 -0.109 1.033 18.504 -23.679 -13.053
0.053316 0.151 -0.063 1.014 17.16 -21.466 -13.42
0.053611 0.128 -0.07 1.002 12.137 -14.366 -9.359
0.053879 0.149 -0.085 0.989 8.55 -10.412 -4.412
0.054145 0.153 -0.098 0.992 5.374 -5.252 -6.748
0.054409 0.16 -0.053 0.993 9.221 -6.611 -5.008
0.054668 0.171 -0.052 1.009 9.786 -7.939 -5.893
0.055044 0.169 -0.044 0.986 8.275 -6.947 -5.496
0.055303 0.166 -0.039 0.97 7.725 -6.611 -3.969
0.055557 0.176 -0.049 0.977 10.824 -6.885 -3.298
0.055808 0.165 -0.06 0.973 9.542 -4.931 -2.916
0.05606 0.166 -0.049 0.968 6.901 -1.74 -0.458
0.056313 0.171 -0.063 0.98 6.031 0.351 0.718
0.056559 0.17 -0.057 0.981 6.046 1.756 0.855
0.05683 0.167 -0.042 0.962 5.618 4.916 2.656
0.057082 0.171 -0.037 0.957 5.084 7.832 6.046
0.057328 0.164 -0.051 0.979 4.977 8.687 6.84
0.057577 0.163 -0.043 0.97 5.542 10.58 7.802
0.057834 0.157 -0.036 0.986 3.939 10.947 10.885
0.058132 0.153 -0.029 0.989 1.191 12.336 12.931
0.058379 0.148 -0.027 0.995 1.695 11.878 14.687
0.058639 0.139 -0.021 0.98 1.969 12.427 17.847
0.058896 0.138 -0.044 0.974 1.71 15.42 19.466
0.059169 0.13 -0.034 0.977 3.282 16.489 25.084
0.059415 0.135 -0.049 0.99 3.374 18.916 27.221
0.059667 0.139 -0.05 0.989 3.542 17.267 29.74
0.059916 0.135 -0.056 0.986 1.771 17.008 30.992
0.060156 0.132 -0.069 0.989 2.336 16.275 32.595
0.060394 0.137 -0.076 1.002 3.557 15.435 32.901
0.060633 0.034 -0.056 1.016 -1.71 2.031 -3.634
0.060972 0.037 -0.052 1.013 -2.214 1.817 -3.817
0.061208 0.041 -0.04 1.012 -2.29 2.076 -4.092
0.061452 0.05 -0.044 0.998 -1.618 2.214 -3.221
0.061693 0.04 -0.05 0.986 -0.641 3.832 -1.374
0.061933 0.043 -0.051 0.992 0.061 4.962 0.321
0.062163 0.051 -0.047 1.004 0.733 5.863 1.756
0.071094 0.037 -0.057 1.009 1.496 6.473 3.282
0.078386 0.034 -0.073 1.018 1.969 6.198 3.771
0.090789 0.041 -0.068 1.022 1.725 6.244 3.649
0.097982 0.031 -0.078 1.048 -0.58 5.908 2.382
0.110678 0.043 -0.086 1.065 -1.573 3.908 0.916
0.117887 0.04 -0.068 1.072 -1.267 1.863 -0.504
0.130038 0.05 -0.057 1.067 -1.756 -0.214 -1.725
0.142699 0.057 -0.087 1.064 -0.397 -0.641 -3.496
0.149695 0.054 -0.077 1.035 2.351 -0.214 -2.504
0.161877 0.054 -0.087 1.047 2.672 1.084 -1.969
0.169201 0.053 -0.079 1.07 4.214 2.611 0.137
0.181549 0.032 -0.07 1.1 5.176 2.885 -1.908
0.188788 0.034 -0.071 1.129 7.176 1.557 -5.511
0.201465 0.035 -0.033 1.153 8.015 0.412 -4.382
0.208737 0.03 -0.017 1.159 9.863 -0.076 -2.916
0.221043 0.03 -0.011 1.165 11.832 0.382 -0.916
0.228336 0.011 -0.009 1.173 13.863 -0.183 -0.061
0.24039 0.015 -0.004 1.188 14.901 0.26 1.069
0.252956 0.025 0.005 1.184 14.122 0.992 0.519
0.260359 0.065 0.001 1.208 10.092 0.427 -0.321
0.27286 0.063 -0.019 1.199 11.756 -0.595 2.168
0.280133 0.063 -0.05 1.219 13.023 -1.954 1.267
0.292447 0.054 -0.059 1.235 13.924 -3.252 -0.168
0.2993 0.045 -0.062 1.263 14.489 -4.168 -0.229
0.311474 0.042 -0.08 1.278 17.542 -6.824 0.183
0.318865 0.043 -0.1 1.311 21.374 -10.947 -1.115
0.330883 0.034 -0.105 1.325 22.244 -18.519 -6.305
0.337128 0.015 -0.107 1.322 23.282 -25.863 -12.229
0.349974 0.025 -0.087 1.3 23.282 -32.947 -17.832
0.362647 0.026 -0.069 1.251 21.985 -39.099 -23.008
0.369108 0.037 -0.041 1.196 21.45 -43.16 -25.832
0.3815 0.052 -0.017 1.145 21.099 -46.779 -27.924
0.388299 0.057 0.003 1.075 24.198 -47.802 -28.183
0.400219 0.069 0.022 1.012 27.069 -46.061 -26.733
0.412704 0.076 0.042 0.959 29.542 -42.0 -24.321
0.419811 0.086 0.066 0.917 32.412 -36.733 -20.183
0.431744 0.097 0.077 0.884 35.328 -32.198 -15.527
0.438803 0.104 0.124 0.878 37.878 -28.427 -9.435
0.450995 0.112 0.15 0.871 40.0 -23.252 -2.672
0.458092 0.104 0.128 0.867 42.809 -18.504 5.206
0.470304 0.105 0.092 0.855 47.649 -14.366 10.55
0.482728 0.098 0.079 0.866 52.29 -10.122 15.359
0.489756 0.102 0.076 0.902 54.26 -8.473 18.794
0.502472 0.114 0.078 0.944 52.351 -8.229 20.443
0.509313 0.125 0.078 0.98 46.397 -12.382 17.74
0.521789 0.125 0.054 0.985 46.489 -13.145 16.229
0.528568 0.131 0.027 0.976 42.702 -17.084 12.137
0.541056 0.136 0.033 0.982 39.099 -20.443 7.557
0.54809 0.156 0.046 0.969 34.809 -24.504 3.008
0.560402 0.164 0.052 0.968 30.885 -27.328 -0.29
0.572729 0.161 0.069 0.962 24.519 -31.374 -5.573
0.580225 0.172 0.089 0.949 18.336 -33.832 -9.313
0.592095 0.185 0.117 0.914 13.847 -34.962 -10.687
0.599045 0.183 0.135 0.902 12.366 -34.351 -10.076
0.61135 0.197 0.157 0.883 10.779 -33.176 -8.519
0.618672 0.203 0.178 0.856 10.748 -31.893 -4.321
0.630655 0.211 0.179 0.83 11.893 -29.466 0.061
0.64295 0.219 0.166 0.804 12.687 -26.992 2.687
0.650061 0.217 0.133 0.767 16.275 -23.344 5.511
0.662767 0.217 0.093 0.758 16.565 -17.542 5.985
0.669486 0.23 0.077 0.728 20.885 -13.359 7.786
0.682273 0.229 0.072 0.738 22.351 -8.29 8.519
0.689099 0.224 0.068 0.747 23.847 -4.641 9.771
0.701523 0.214 0.068 0.77 22.427 -2.0 10.214
0.708672 0.218 0.055 0.782 20.351 -1.008 8.931
0.72154 0.211 0.055 0.781 17.313 -1.618 6.046
0.728375 0.206 0.054 0.777 13.282 -2.885 2.626
0.740911 0.192 0.057 0.769 7.557 -4.534 -1.099
0.74815 0.196 0.045 0.772 2.443 -8.061 -7.145
0.760518 0.194 0.04 0.708 -2.763 -8.595 -9.954
0.772954 0.181 0.054 0.693 -6.809 -10.87 -13.053
0.780125 0.197 0.087 0.658 -8.489 -11.649 -13.863
0.791918 0.206 0.073 0.635 -15.817 -9.252 -14.824
0.798989 0.203 0.124 0.611 -21.008 -5.908 -13.908
0.811258 0.223 0.113 0.606 -22.611 -2.977 -11.542
0.818684 0.227 0.107 0.609 -21.405 -0.244 -10.977
0.830672 0.222 0.12 0.601 -19.725 3.847 -7.573
0.842714 0.229 0.138 0.621 -18.855 8.275 -3.802
0.850077 0.229 0.146 0.643 -19.618 11.221 -0.26
0.862568 0.221 0.143 0.671 -21.313 14.229 2.931
0.869228 0.221 0.127 0.713 -23.74 15.924 5.374
0.88175 0.225 0.104 0.748 -26.824 17.267 7.008
0.889007 0.229 0.104 0.823 -27.328 13.053 5.176
0.901558 0.222 0.093 0.854 -34.702 14.275 2.305
0.908405 0.234 0.118 0.888 -41.786 12.718 1.969
0.920874 0.235 0.115 0.918 -45.573 9.466 0.168
0.928087 0.246 0.114 0.932 -46.87 9.725 0.412
0.940594 0.226 0.099 0.937 -48.504 8.336 1.45
0.95296 0.22 0.085 0.909 -40.931 9.405 7.725
0.960112 0.189 0.058 0.917 -34.641 15.038 12.305
0.972526 0.197 0.04 0.932 -27.878 19.969 20.351
0.980004 0.193 0.059 0.998 -28.443 21.71 21.649
0.991712 0.208 0.069 1.061 -33.908 22.656 21.282
0.99885 0.227 0.068 1.101 -34.168 19.847 20.122
1.011018 0.235 0.056 1.137 -33.298 13.206 15.435
1.018024 0.234 0.035 1.137 -31.924 7.511 10.427
1.030313 0.229 0.02 1.146 -27.603 0.611 6.794
1.042922 0.231 -0.02 1.143 -23.496 -5.725 0.748
1.049953 0.209 -0.049 1.098 -20.687 -8.26 -3.16
1.062309 0.211 -0.061 1.077 -20.351 -6.275 -3.16
1.069237 0.218 -0.054 1.095 -23.298 -6.015 -6.305
1.081335 0.249 -0.044 1.102 -26.183 -8.122 -11.176
1.088197 0.248 -0.028 1.096 -26.702 -10.382 -14.885
1.100173 0.249 -0.002 1.061 -27.878 -10.244 -15.023
1.112484 0.263 0.001 1.049 -28.107 -9.328 -12.55
1.119753 0.26 -0.015 1.019 -26.351 -8.031 -11.282
1.131288 0.248 -0.042 1.001 -20.305 -4.962 -8.87
1.13842 0.241 -0.069 0.996 -15.71 0.168 -6.55
1.150705 0.241 -0.057 1.019 -11.527 3.725 -2.672
1.163179 0.247 -0.041 1.072 -9.954 3.924 -2.183
1.170338 0.264 -0.024 1.123 -10.809 1.618 -4.366
1.182675 0.271 -0.004 1.121 -11.985 -0.947 -7.45
1.189552 0.27 -0.003 1.097 -12.885 -3.985 -9.069
1.201775 0.279 -0.015 1.058 -13.221 -5.267 -9.939
1.208702 0.272 -0.043 1.021 -8.885 -4.595 -8.87
1.221283 0.278 -0.054 1.007 -4.718 -1.832 -6.076
1.228179 0.279 -0.061 1.012 -3.939 0.26 -4.244
1.240176 0.274 -0.066 1.018 -1.389 2.305 -3.603
1.252946 0.277 -0.078 1.034 0.183 4.153 -4.87
1.260052 0.281 -0.087 1.034 0.702 5.573 -4.443
1.272701 0.276 -0.089 1.037 2.031 5.344 -7.313
1.279923 0.28 -0.083 1.037 1.496 5.206 -8.382
1.291902 0.28 -0.082 1.042 0.137 6.076 -8.977
1.299281 0.275 -0.097 1.036 0.55 6.229 -9.969
1.31202 0.274 -0.095 1.05 -1.328 6.489 -11.298
1.318886 0.27 -0.083 1.043 -2.443 6.885 -10.733
1.331257 0.26 -0.082 1.03 -1.847 7.267 -9.985
1.338377 0.256 -0.074 1.014 -0.031 8.321 -7.893
1.3505 0.254 -0.085 1.022 1.618 9.389 -6.336
1.362961 0.246 -0.087 1.019 4.962 10.046 -5.389
1.370558 0.263 -0.077 1.011 2.351 15.969 -6.87
1.382449 0.246 -0.076 1.041 5.969 9.679 -5.13
1.389674 0.239 -0.063 1.023 4.779 5.176 -7.756
1.402297 0.246 -0.072 1.003 3.481 7.74 -7.511
1.409575 0.239 -0.063 0.979 4.641 7.084 -6.29
1.42216 0.235 -0.059 0.985 3.053 6.076 -7.603
1.429135 0.233 -0.051 0.957 3.527 8.015 -8.046
1.441714 0.224 -0.046 0.957 5.176 9.985 -6.824
1.448871 0.227 -0.052 0.958 6.519 11.267 -4.0
1.461199 0.226 -0.052 0.962 8.305 13.557 -1.603
1.468669 0.226 -0.067 0.966 9.466 14.763 0.244
1.480745 0.215 -0.058 0.975 8.641 14.931 0.473
1.488501 0.226 -0.053 0.986 6.733 14.58 -0.962
1.500368 0.218 -0.059 0.983 6.198 13.466 -3.115
1.512912 0.208 -0.056 0.976 6.015 13.237 -3.679
1.520226 0.202 -0.05 0.976 5.13 13.939 -3.603
1.532304 0.201 -0.047 0.987 2.565 14.656 -3.542
1.53967 0.201 -0.041 0.984 1.16 15.023 -1.573
1.55169 0.198 -0.04 0.997 2.901 16.916 0.748
1.558947 0.199 -0.045 1.009 6.641 18.137 3.008
1.571794 0.207 -0.036 1.009 10.382 19.252 6.443
1.578565 0.199 -0.05 1.03 11.008 19.679 7.664
1.591013 0.213 -0.072 1.037 10.779 18.565 7.42
1.598371 0.211 -0.086 1.043 9.863 16.855 4.809
1.610754 0.2 -0.087 1.044 8.977 14.672 1.527
1.623118 0.196 -0.082 1.033 6.58 12.901 -1.053
1.630258 0.187 -0.064 1.017 3.817 11.725 -1.939
1.642467 0.194 -0.057 1.009 3.542 11.74 -2.58
1.649527 0.183 -0.056 1.014 4.473 11.847 -4.519
1.662034 0.182 -0.042 1.002 5.252 11.313 -4.534
1.669118 0.183 -0.038 1.015 5.603 12.107 -3.237
1.681726 0.172 -0.045 1.021 6.214 11.634 -2.351
1.688951 0.175 -0.045 1.036 5.893 10.626 -4.244
1.700965 0.178 -0.036 1.036 5.237 8.473 -6.626
1.708301 0.169 -0.045 1.029 3.435 6.473 -7.359
1.721588 0.167 -0.051 1.015 3.771 5.893 -6.473
1.726713 0.17 -0.044 1.019 3.267 4.824 -6.672
1.740128 0.176 -0.046 0.992 1.313 4.076 -6.229
1.752568 0.18 -0.041 0.981 2.656 5.695 -4.763
1.759712 0.172 -0.031 0.971 2.977 6.458 -3.511
1.772204 0.156 -0.038 0.975 2.031 7.023 -5.206
1.779487 0.167 -0.008 0.978 0.977 8.84 -1.053
1.792228 0.171 -0.005 0.982 5.084 9.16 0.58
1.799417 0.167 -0.024 0.994 7.939 9.45 1.771
1.811908 0.161 -0.042 1.009 10.29 9.649 1.634
1.819247 0.169 -0.038 1.016 8.885 7.71 -0.473
1.831569 0.169 -0.029 1.024 8.275 6.107 -1.237
1.838711 0.184 -0.039 1.023 5.878 5.053 -3.45
1.851279 0.168 -0.06 1.0 4.84 4.947 -2.87
1.858438 0.165 -0.052 0.987 6.718 4.336 -4.244
1.870947 0.153 -0.057 0.982 7.13 5.435 -6.29
1.878256 0.167 -0.032 0.993 0.519 5.557 -3.939
1.890722 0.162 -0.013 0.969 -2.351 5.038 -4.947
1.902908 0.158 -0.016 0.963 -2.351 5.969 -2.168
1.910194 0.158 -0.014 0.962 -0.748 7.267 -0.137
1.922682 0.158 -0.011 0.978 0.076 7.74 1.435
1.929858 0.159 -0.019 0.979 -0.824 7.679 2.305
1.942312 0.166 -0.03 0.989 -2.015 6.779 3.496
1.949476 0.158 -0.037 0.988 -1.115 6.779 4.565
1.962132 0.155 -0.034 0.988 -2.977 7.069 3.573
1.969369 0.164 -0.042 0.99 -4.244 6.595 1.878
1.981593 0.163 -0.047 0.977 -4.794 7.298 3.71
1.988727 0.157 -0.054 0.982 -3.176 6.885 2.382
