Time AX AY AZ GX GY GZ
0.014074625000006336 -0.188 0.11 1.015 -4.16 -5.824 -0.519
0.026655958000006308 -0.184 0.116 1.003 -5.115 -3.115 0.595
0.039193041000004314 -0.197 0.111 0.993 -5.802 -1.092 2.053
0.046197333000009166 -0.211 0.09 0.995 -5.145 -1.359 4.092
0.05867870800000219 -0.196 0.065 0.983 -3.664 -3.351 5.718
0.06567245800000876 -0.177 0.021 1.006 -0.962 -4.13 5.565
0.0782230410000011 -0.164 0.0 0.975 1.847 -1.496 2.328
0.08548166600000684 -0.164 0.014 0.968 2.405 1.573 -0.626
0.09803470800000014 -0.169 0.048 0.963 1.176 1.748 -1.908
0.10495895799999744 -0.186 0.072 0.93 -0.924 0.855 -0.656
0.1176117500000089 -0.182 0.062 0.916 -2.962 2.061 0.015
0.1250956660000071 -0.191 0.061 0.923 -5.023 2.664 0.214
0.13737333299999932 -0.2 0.057 0.94 -6.397 0.924 0.84
0.149452832999998 -0.191 0.049 0.937 -7.802 -2.481 1.763
0.15685829100000603 -0.168 0.03 0.937 -8.183 -4.977 1.847
0.16888920800001017 -0.142 0.009 0.948 -6.336 -2.924 -0.13
0.17618641600000728 -0.152 0.017 0.951 -4.519 0.824 -3.076
0.18857079100000362 -0.174 0.038 0.965 -5.092 3.038 -4.84
0.19554516600000227 -0.197 0.071 0.973 -6.55 1.313 -4.771
0.2079252500000024 -0.196 0.08 0.958 -9.076 -0.817 -4.16
0.21463437500000282 -0.202 0.076 0.951 -12.359 -0.679 -3.634
0.22706470800000034 -0.217 0.07 0.959 -15.908 0.908 -2.832
0.23943554100000597 -0.216 0.048 0.98 -16.618 -0.176 -1.748
0.2460849579999973 -0.207 0.015 1.007 -13.031 -2.916 -1.786
0.25824629100000607 -0.219 -0.005 1.007 -9.023 -4.595 -1.565
0.2653318750000011 -0.213 -0.025 1.008 -5.519 -4.466 -0.893
0.27764329100000396 -0.194 0.014 1.051 -3.176 -6.351 -1.099
0.2845929580000046 -0.196 0.057 1.049 -1.573 -8.099 -1.069
0.297100166000007 -0.189 0.08 1.022 -1.618 -7.992 0.496
0.30276250000000005 -0.19 0.076 1.017 -1.992 -3.611 2.962
0.3166082080000052 -0.194 0.049 1.003 -2.878 1.565 4.313
0.3292097080000076 -0.227 0.037 1.024 -3.511 3.481 6.573
0.3365549580000078 -0.217 0.012 1.063 -3.191 -0.237 8.099
0.3486382910000003 -0.162 -0.007 1.055 -1.603 -5.221 6.221
0.3554955000000035 -0.134 -0.012 1.062 1.084 -6.336 3.191
0.3680417910000102 -0.138 -0.005 1.037 3.061 -1.038 0.427
0.3753324160000062 -0.151 0.031 1.036 3.053 5.366 -0.916
0.38784945800000514 -0.199 0.054 1.06 2.916 8.458 0.832
0.39516541599999755 -0.219 0.056 1.065 3.267 6.084 3.855
0.4076075830000008 -0.219 0.045 1.07 4.046 0.542 5.641
0.41483800000000315 -0.192 0.033 1.039 4.153 -3.511 7.008
0.42736358300000177 -0.162 0.036 1.025 3.565 -3.313 6.565
0.43462120800001003 -0.138 0.048 0.999 2.359 -0.244 4.908
0.44711895800000434 -0.139 0.057 0.982 0.84 3.55 3.244
0.454478666 -0.156 0.068 0.993 -1.542 5.275 2.038
0.466966333000002 -0.188 0.072 0.991 -5.061 4.305 2.321
0.4794149160000103 -0.206 0.064 0.994 -8.328 1.183 2.985
0.48658229100000483 -0.216 0.062 0.989 -11.13 -2.443 4.489
0.49864916600000697 -0.21 0.067 1.01 -12.893 -5.939 6.031
0.5058584160000095 -0.195 0.07 1.024 -15.26 -9.076 6.237
0.5180130410000032 -0.184 0.056 1.053 -16.145 -9.336 5.382
0.5250365410000057 -0.187 0.042 1.077 -16.939 -6.992 3.924
0.5375444160000029 -0.2 0.034 1.089 -17.214 -4.015 3.786
0.5446682500000009 -0.215 0.03 1.111 -17.206 -3.573 3.847
0.5568897500000105 -0.231 0.047 1.115 -17.267 -5.985 4.901
0.5689484580000084 -0.228 0.066 1.125 -17.756 -9.901 6.931
0.5760558750000087 -0.194 0.066 1.144 -18.74 -13.679 8.031
0.5883035829999983 -0.139 0.065 1.159 -18.405 -16.405 7.466
0.5952336250000059 -0.113 0.049 1.167 -15.962 -15.076 6.992
0.6073322910000059 -0.084 0.025 1.156 -12.298 -8.176 5.412
0.6146726249999972 -0.088 0.016 1.158 -8.183 1.878 1.252
0.6268991660000012 -0.132 0.02 1.164 -3.809 8.191 -1.878
0.6394253330000055 -0.167 0.041 1.169 -0.634 7.656 -2.733
0.6466720000000095 -0.191 0.053 1.166 3.55 2.42 -0.969
0.6591941249999991 -0.204 0.056 1.153 7.26 -2.748 2.511
0.6662162909999978 -0.181 0.038 1.108 9.229 -4.298 4.527
0.6787183330000062 -0.181 0.03 1.063 9.885 -1.412 5.336
0.6859918330000028 -0.196 0.047 1.039 8.176 1.695 7.046
0.6987303330000003 -0.225 0.041 1.049 6.374 4.664 9.656
0.7059509999999989 -0.221 0.021 1.085 7.16 3.908 9.481
0.7185936660000039 -0.201 0.006 1.069 8.42 -1.672 6.351
0.72580825 -0.185 0.003 1.077 10.481 -8.924 3.718
0.7378164160000011 -0.161 0.027 1.028 11.55 -14.679 2.603
0.7449553750000035 -0.142 0.046 1.022 12.0 -14.794 2.565
0.7573432500000052 -0.146 0.066 0.985 10.832 -8.924 3.71
0.7644679579999973 -0.189 0.074 0.977 7.656 0.458 5.626
0.7772445829999981 -0.271 0.068 1.013 4.176 7.573 8.0
0.7894803750000108 -0.296 0.039 1.076 2.687 1.137 11.832
0.7965711249999998 -0.274 0.01 1.148 5.679 -19.496 14.618
0.8088114580000081 -0.226 -0.014 1.129 11.779 -40.969 14.969
0.8155533750000075 -0.174 -0.004 1.076 17.153 -52.634 14.603
0.8277430410000051 -0.117 0.028 0.993 18.267 -51.168 15.634
0.834891791000004 -0.064 0.056 0.943 16.534 -38.198 15.71
0.8470717080000014 -0.038 0.094 0.924 11.969 -21.58 13.87
0.8596172910000064 -0.021 0.103 0.921 6.74 -4.122 10.893
0.8666316250000108 -0.062 0.102 0.921 -0.183 11.473 7.069
0.8789150830000096 -0.14 0.103 0.94 -7.756 20.908 5.618
0.8864099999999979 -0.189 0.107 0.965 -15.336 18.061 7.42
0.8982676250000026 -0.195 0.099 0.969 -22.038 6.191 11.26
0.9055779580000092 -0.136 0.052 1.026 -22.809 -5.053 12.45
0.9177226660000031 -0.047 -0.015 1.015 -17.519 -7.84 5.954
0.9236080410000085 -0.034 -0.039 0.994 -11.534 1.855 -3.038
0.9367396660000082 -0.064 -0.013 0.991 -8.954 15.374 -7.435
0.9487698330000001 -0.128 0.032 0.971 -10.237 25.344 -5.885
0.9560632080000033 -0.223 0.066 1.003 -11.924 32.481 0.695
0.9683583750000082 -0.26 0.027 1.052 -12.733 27.038 5.496
0.9756347910000045 -0.322 0.02 1.093 -11.977 5.679 6.076
0.9876158330000067 -0.361 0.03 1.1 -11.779 -27.55 11.733
0.9994740409999991 -0.308 0.044 1.021 -14.397 -58.84 20.26
1.006708541000009 -0.186 0.041 0.971 -18.267 -78.16 27.687
1.0184885000000037 -0.063 0.011 0.915 -18.771 -76.13 27.656
1.025781041000002 0.054 -0.041 0.92 -13.16 -54.947 22.809
1.0378059160000106 0.109 -0.087 0.938 -2.649 -25.26 13.931
1.0453701250000051 0.089 -0.076 0.907 5.031 7.26 5.298
1.0573561660000053 0.045 -0.026 0.894 9.664 33.221 -1.321
1.0649279579999984 -0.014 0.043 0.894 8.588 46.985 -3.634
1.0767581660000047 -0.071 0.083 0.898 4.611 51.641 -2.611
1.0892478330000017 -0.124 0.089 0.891 -0.031 53.13 -1.076
1.0964839580000074 -0.151 0.067 0.894 -6.0 53.252 -0.137
1.1084825410000008 -0.169 0.044 0.882 -12.435 51.878 1.779
1.1158807500000023 -0.163 0.016 0.928 -16.664 48.145 0.809
1.1278023750000017 -0.183 0.001 0.964 -16.183 42.252 -0.565
1.134912749999998 -0.188 -0.021 0.996 -10.802 37.023 -0.588
1.1470252499999987 -0.198 -0.044 0.973 -4.191 31.16 -2.435
1.1591841660000028 -0.22 -0.019 0.981 1.176 23.382 -3.679
1.166539708000002 -0.253 0.024 0.978 4.931 12.611 -0.962
1.1787062909999975 -0.28 0.051 0.982 6.405 -0.603 4.855
1.185991333000004 -0.258 0.052 0.965 6.397 -13.473 10.015
1.1980962080000097 -0.224 0.033 0.948 4.649 -24.397 12.069
1.205413041 -0.186 -0.004 0.916 2.435 -30.771 11.58
1.2173228750000078 -0.133 -0.01 0.952 1.695 -33.252 9.557
1.2234414580000106 -0.12 -0.011 0.955 3.427 -30.641 8.901
1.2369427080000008 -0.105 -0.015 0.954 6.863 -23.664 7.351
1.248915291000003 -0.113 0.006 0.958 8.359 -19.0 4.359
1.2564860000000095 -0.139 0.036 0.97 7.916 -20.374 3.252
1.2684893750000015 -0.154 0.061 1.004 4.878 -28.107 3.908
1.2760156249999994 -0.144 0.06 1.019 2.366 -36.244 4.679
1.288033750000011 -0.112 0.029 1.022 -0.42 -41.229 4.458
1.2954087080000107 -0.061 0.005 1.005 -0.603 -40.466 3.328
1.3076082080000049 -0.025 0.001 0.997 1.031 -35.221 1.443
1.314910458 -0.016 0.009 0.979 4.359 -25.26 -1.595
1.3269541250000003 -0.038 0.025 0.965 7.458 -13.29 -4.389
1.338977583000002 -0.076 0.039 0.991 10.817 -5.435 -5.802
1.3462352909999993 -0.105 0.035 0.99 12.458 -3.695 -5.885
1.35865758300001 -0.141 0.047 1.001 12.74 -8.809 -4.504
1.365914625000002 -0.157 0.053 1.009 11.725 -18.29 -1.618
1.3778815830000042 -0.14 0.056 1.014 10.221 -28.672 0.901
1.3851217500000104 -0.106 0.05 1.013 8.603 -36.405 1.672
1.397403875000009 -0.068 0.036 0.997 8.389 -37.84 0.817
1.409604625 -0.031 0.044 0.965 8.473 -34.824 -0.702
1.416772750000007 -0.019 0.048 0.962 8.885 -27.221 -2.229
1.4287735409999982 -0.027 0.05 0.961 8.595 -19.053 -3.427
1.4359937500000086 -0.024 0.04 0.977 8.71 -13.153 -4.496
1.448277166000011 -0.05 0.038 1.006 8.496 -9.832 -4.756
1.4553374580000025 -0.083 0.047 1.02 7.374 -9.817 -3.695
1.467699875000008 -0.087 0.055 1.017 5.763 -11.679 -1.733
1.4751892499999997 -0.08 0.062 1.028 4.115 -15.008 0.038
1.4872376659999986 -0.041 0.034 1.021 6.473 -15.992 -0.817
1.4992575830000021 -0.011 -0.001 0.991 8.832 -14.092 -5.687
1.506553457999999 -0.013 0.007 0.986 11.481 -8.168 -9.42
1.5188268330000056 -0.019 0.024 0.967 14.023 -1.053 -9.969
1.526234166000009 -0.042 0.05 0.959 15.969 4.328 -8.924
1.5384162499999974 -0.071 0.081 0.947 16.557 8.137 -6.427
1.5457312910000098 -0.101 0.104 0.926 15.885 9.115 -3.458
1.5580599580000012 -0.123 0.108 0.937 12.344 5.145 -0.748
1.5652689580000043 -0.124 0.088 0.961 8.641 -3.58 0.893
1.5774503330000016 -0.119 0.08 0.983 4.397 -14.557 1.924
1.5834080409999984 -0.072 0.061 0.975 2.229 -23.008 1.595
1.5968738330000036 -0.019 0.055 0.962 0.031 -27.389 -2.191
1.6090907909999999 0.05 0.05 0.943 -1.473 -25.26 -6.412
1.6162235410000108 0.08 0.058 0.935 -2.519 -16.366 -10.702
1.6283907079999977 0.07 0.07 0.876 -5.198 1.046 -13.473
1.6356990410000094 0.02 0.084 0.897 -5.863 20.282 -13.687
1.6477723750000024 -0.039 0.078 0.942 -6.084 32.458 -11.336
1.655119041000006 -0.101 0.08 0.964 -6.718 34.893 -8.336
1.6673210830000045 -0.135 0.071 0.968 -6.321 29.542 -4.916
1.6792799159999987 -0.137 0.05 0.975 -5.901 18.481 -2.099
1.6865878330000044 -0.127 0.043 0.981 -6.55 5.244 -0.252
1.6988320000000101 -0.096 0.043 0.979 -6.26 -2.656 -0.336
1.7058402910000012 -0.041 0.034 0.957 -6.473 -6.611 -3.069
1.7185225409999987 0.002 0.047 0.925 -8.206 -6.191 -7.198
1.7252610830000066 -0.001 0.073 0.92 -10.267 -2.679 -10.634
1.7374368750000002 0.002 0.076 0.926 -11.855 2.435 -12.771
1.7495360830000095 -0.01 0.062 0.943 -12.351 6.954 -13.374
1.7563968750000072 -0.045 0.047 0.941 -12.229 8.885 -12.832
1.7686245000000014 -0.086 0.049 0.946 -11.252 7.618 -10.634
1.7755224579999975 -0.102 0.041 0.957 -9.802 2.794 -8.031
1.7879597910000058 -0.106 0.038 0.993 -7.29 -5.168 -6.29
1.7949042500000019 -0.078 0.011 1.001 -3.374 -12.168 -7.962
1.8070201250000082 -0.037 -0.004 0.979 -0.328 -17.313 -12.031
1.8192405409999992 -0.001 0.022 0.958 0.16 -20.802 -14.878
1.8262601659999973 0.037 0.067 0.933 -1.458 -19.962 -14.412
1.8384690410000104 0.062 0.095 0.906 -4.916 -11.969 -14.061
1.8454362080000095 0.059 0.079 0.88 -9.351 3.344 -13.817
1.8576752910000067 0.042 0.064 0.881 -13.832 18.832 -14.916
1.8648038750000069 -0.019 0.042 0.918 -16.931 29.145 -15.519
1.876717916000004 -0.086 0.036 0.956 -18.466 30.397 -13.244
1.888930041000009 -0.122 0.034 0.99 -19.26 20.939 -9.634
1.896002958000011 -0.141 0.037 0.989 -19.084 7.313 -5.802
1.9082467080000072 -0.1 0.011 1.0 -14.863 -3.061 -3.473
1.9153510830000045 -0.032 -0.044 0.984 -8.206 -7.084 -6.977
1.9276289160000033 0.008 -0.074 0.958 -2.763 -4.649 -14.817
1.9336291250000102 -0.03 -0.035 0.955 -1.275 -1.718 -18.84
1.9468761250000028 -0.053 0.013 0.989 -0.802 -1.679 -18.168
1.9589967499999972 -0.049 0.026 1.02 0.588 -4.473 -16.481
1.9663685830000048 -0.059 0.02 0.994 1.687 -5.626 -14.389
1.9783016660000072 -0.059 0.024 0.963 2.473 -4.496 -11.695
1.9856066660000096 -0.045 0.033 0.959 2.878 -4.603 -10.374
1.9979173330000037 -0.017 0.067 0.935 2.702 -8.611 -9.321
2.0051991250000043 0.015 0.08 0.941 0.695 -11.939 -8.397
2.017197875000008 0.038 0.071 0.932 -1.634 -9.099 -10.649
2.0294230829999975 0.051 0.037 0.912 -5.366 0.137 -13.809
2.0367320410000076 0.047 -0.003 0.954 -7.061 10.45 -17.565
2.0485891250000066 -0.008 -0.006 0.981 -6.29 16.618 -19.344
2.055794583000008 -0.062 0.002 1.01 -3.275 16.718 -17.779
2.068091541000001 -0.103 0.009 1.043 0.366 9.443 -15.42
2.075444166000011 -0.106 0.03 1.03 3.718 -2.084 -13.305
2.087493207999998 -0.088 0.046 1.017 5.824 -14.122 -11.931
2.099473333000006 -0.072 0.07 0.992 5.893 -21.977 -10.771
2.1067260410000017 -0.045 0.067 0.981 4.855 -24.382 -9.794
2.118781708 -0.01 0.042 0.99 3.786 -21.756 -10.519
2.125842791000011 0.043 -0.007 1.008 3.992 -16.802 -13.176
2.137872833000003 0.079 -0.009 1.005 3.901 -11.557 -17.679
2.145415749999998 0.069 0.024 1.01 3.076 -4.542 -19.878
2.157650750000002 0.02 0.047 0.992 2.893 5.405 -19.649
2.1649247499999973 -0.001 0.05 0.996 2.145 12.901 -18.794
2.177005875000006 -0.046 0.031 0.988 1.115 14.031 -18.015
2.189190916000001 -0.11 0.015 1.022 0.718 9.763 -17.275
2.196515708000007 -0.149 0.002 1.039 0.931 0.137 -15.748
2.2085632910000044 -0.158 -0.007 1.048 1.969 -13.611 -13.374
2.215581125 -0.125 -0.008 1.076 3.87 -26.649 -10.649
2.227694291000006 -0.041 -0.008 1.051 6.87 -34.275 -10.427
2.2349311660000097 0.026 0.008 1.016 8.13 -31.252 -11.87
2.24694254100001 0.068 0.017 0.995 8.756 -17.954 -14.29
2.259180833000002 0.069 0.015 0.99 8.931 -1.099 -16.679
2.266480333000004 0.033 0.008 0.991 8.511 11.901 -18.13
2.278455416 -0.039 0.008 1.015 7.115 17.351 -17.84
2.2857745000000023 -0.1 0.002 1.047 7.321 14.328 -16.313
2.2980741249999994 -0.138 -0.001 1.081 8.099 3.366 -15.16
2.305121791000005 -0.121 -0.004 1.076 9.458 -11.328 -14.595
2.3171791660000025 -0.093 0.008 1.06 11.344 -22.046 -14.779
2.328905665999997 -0.041 0.01 1.019 13.405 -25.779 -13.626
2.3362394580000085 0.014 0.019 0.991 15.328 -20.252 -12.794
2.3482381660000016 0.043 0.031 0.955 16.779 -8.748 -12.672
2.355777333000006 0.029 0.066 0.934 17.481 4.847 -10.969
2.367799290999997 0.001 0.087 0.957 17.0 13.397 -9.344
2.375184500000003 -0.031 0.07 0.983 16.611 15.145 -9.115
2.387098750000007 -0.049 0.07 1.013 15.42 10.916 -10.282
2.3993947080000027 -0.044 0.083 1.033 14.534 0.779 -11.435
2.4064615830000093 -0.019 0.094 1.033 14.107 -6.382 -14.885
2.4185047910000037 -0.018 0.067 0.988 13.588 -8.595 -13.969
2.4257484160000047 -0.011 0.042 0.966 11.985 -5.695 -16.947
2.437825666000009 -0.066 0.044 0.963 11.046 -3.954 -16.511
2.4451300830000093 -0.081 0.045 0.979 10.359 -6.74 -15.023
2.4569198330000006 -0.084 0.064 0.983 11.901 -10.855 -14.412
2.4689249999999987 -0.081 0.07 0.956 13.832 -14.458 -12.664
2.4762224580000094 -0.064 0.079 0.939 14.855 -16.641 -9.595
2.4882932080000018 -0.013 0.102 0.945 16.45 -18.565 -7.031
2.4956108330000006 0.039 0.113 0.906 17.084 -15.718 -6.656
