Time AX AY AZ GX GY GZ
0.019134957999995095 -0.191 0.008 1.005 -10.802 11.763 -10.382
0.03180537500000469 -0.212 0.029 1.017 -9.74 4.153 -7.992
0.03868129100000317 -0.206 0.045 1.029 -9.374 -4.885 -5.176
0.05093820800000515 -0.191 0.037 1.01 -9.725 -10.55 -2.832
0.056539833000002204 -0.151 0.022 0.997 -10.351 -11.985 -2.321
0.06998241600000199 -0.117 0.022 0.993 -11.298 -10.115 -2.733
0.08227420800000118 -0.098 0.008 0.998 -11.412 -4.832 -3.618
0.08912937499999884 -0.101 -0.007 0.993 -10.756 2.809 -5.565
0.10136637499999779 -0.123 -0.018 1.004 -9.267 9.221 -7.603
0.1083494580000064 -0.152 -0.028 1.01 -7.733 11.275 -8.0
0.12068200000000218 -0.187 -0.01 1.06 -5.794 7.313 -5.687
0.13294741599999327 -0.187 -0.018 1.084 -3.473 -0.588 -2.336
0.1399438330000038 -0.156 -0.018 1.083 -1.069 -8.527 -0.84
0.15220150000000388 -0.124 -0.012 1.046 0.397 -10.992 -0.618
0.15925199999999506 -0.101 0.0 1.003 1.435 -9.282 -1.176
0.17183687499999678 -0.08 0.0 0.967 0.611 -2.985 -2.931
0.17870337499999778 -0.081 0.001 0.938 -0.763 4.962 -4.244
0.1909879579999938 -0.093 -0.014 0.944 -1.099 12.084 -6.191
0.19800491600000214 -0.136 -0.03 0.97 -0.26 15.756 -6.916
0.21029183299999943 -0.162 -0.027 0.994 0.763 12.328 -6.084
0.2227752080000016 -0.173 -0.023 1.011 1.16 2.878 -3.969
0.22998450000000048 -0.154 0.001 0.999 0.344 -7.397 -2.214
0.2422684160000017 -0.119 0.009 0.954 -1.031 -10.145 -2.847
0.24927045799999803 -0.114 -0.002 0.938 -2.389 -3.313 -3.931
0.2615057910000047 -0.116 -0.01 0.949 -3.809 5.756 -5.481
0.26864366600000267 -0.13 -0.03 0.94 -3.588 11.16 -5.992
0.280559083 -0.163 -0.036 0.974 -2.794 9.534 -5.763
0.2927950410000051 -0.183 -0.023 0.974 -2.351 4.344 -4.374
0.3000949580000025 -0.176 -0.009 0.976 -2.466 -2.29 -2.695
0.3121383750000035 -0.166 -0.015 0.965 -3.069 -5.412 -1.366
0.3191898750000064 -0.17 -0.014 0.95 -4.832 -3.427 -0.504
0.33123233300000265 -0.165 -0.009 0.956 -7.473 0.0 0.137
0.33855537499999855 -0.156 -0.017 0.985 -9.855 0.901 0.641
0.35052174999999863 -0.145 -0.032 1.01 -10.275 -0.679 -0.015
0.362710375000006 -0.115 -0.042 1.029 -8.756 -2.0 -2.725
0.36972324999999273 -0.108 -0.039 1.017 -7.427 -0.656 -4.954
0.3820511250000038 -0.127 -0.022 1.032 -5.84 1.565 -4.817
0.3889977080000051 -0.127 -0.011 1.05 -4.58 3.076 -3.466
0.40146508300000505 -0.134 -0.004 1.038 -3.962 4.412 -2.504
0.4085582910000056 -0.144 -0.0 1.027 -4.214 6.221 -1.588
0.42102654100000336 -0.18 0.007 1.017 -5.618 7.969 0.267
0.4281342499999994 -0.176 -0.014 1.021 -6.687 8.168 1.672
0.4405698749999942 -0.169 -0.04 1.027 -5.977 7.214 1.397
0.45270158300000674 -0.165 -0.055 1.042 -5.595 5.237 0.198
0.4601348329999979 -0.151 -0.051 1.038 -5.725 2.748 -0.053
0.4723706660000033 -0.144 -0.021 1.04 -5.504 -0.092 0.817
0.47953729099999975 -0.123 -0.005 1.052 -5.855 -1.771 1.809
0.4916584999999998 -0.116 0.009 1.032 -7.267 -1.496 1.893
0.4991942909999949 -0.101 0.016 1.021 -9.0 1.595 1.13
0.5112149579999965 -0.101 0.006 1.01 -11.855 4.527 -0.282
0.5185512500000016 -0.119 -0.007 1.013 -14.969 6.664 -1.221
0.5306120409999977 -0.119 -0.032 1.037 -16.031 8.427 -3.405
0.542530333000002 -0.14 -0.057 1.049 -16.511 9.901 -6.015
0.5497956250000016 -0.162 -0.068 1.076 -17.237 9.206 -7.206
0.5619055829999979 -0.162 -0.064 1.098 -16.58 6.344 -6.252
0.5687079580000045 -0.19 -0.052 1.116 -14.679 4.092 -3.924
0.581070749999995 -0.221 -0.043 1.105 -12.511 4.458 -0.824
0.5883146660000023 -0.231 -0.05 1.13 -9.763 3.481 3.252
0.6005646659999968 -0.214 -0.065 1.129 -6.702 -1.908 6.023
0.6125212500000004 -0.204 -0.066 1.141 -4.389 -10.053 8.328
0.6198461660000021 -0.178 -0.045 1.139 -2.84 -18.733 9.756
0.6319027079999984 -0.134 -0.032 1.122 -2.076 -24.374 9.779
0.6389619579999959 -0.102 -0.018 1.082 -2.878 -22.443 7.809
0.6510399579999984 -0.069 -0.011 1.084 -4.069 -14.489 6.725
0.6568817910000035 -0.069 -0.02 1.098 -5.229 -4.267 5.84
0.6702995410000057 -0.081 -0.04 1.13 -4.885 7.687 5.641
0.6825228329999931 -0.079 -0.081 1.142 -1.122 18.313 3.565
0.6901554159999961 -0.118 -0.101 1.162 3.305 23.802 1.191
0.702145625 -0.153 -0.079 1.177 7.588 23.16 1.916
0.7094539160000011 -0.173 -0.054 1.166 9.374 17.344 3.344
0.7217218330000037 -0.177 -0.026 1.14 10.267 11.229 5.626
0.7291547079999958 -0.172 -0.016 1.111 9.656 9.939 7.58
0.7411277079999934 -0.168 -0.022 1.089 8.015 11.893 7.664
0.7487192910000005 -0.175 -0.029 1.08 6.321 13.992 8.458
0.7607437500000032 -0.166 -0.034 1.101 6.26 14.046 7.947
0.7729542080000016 -0.154 -0.046 1.102 7.908 12.733 5.557
0.7803619160000039 -0.165 -0.06 1.083 8.786 10.191 3.13
0.7924772909999973 -0.204 -0.046 1.086 9.038 7.977 1.893
0.7997957080000049 -0.226 -0.036 1.108 9.344 2.756 1.863
0.8119860829999936 -0.228 -0.021 1.121 10.603 -7.031 4.901
0.8190538329999981 -0.208 -0.01 1.119 11.687 -17.931 8.366
0.8313705829999947 -0.174 -0.014 1.094 11.229 -23.282 10.0
0.8382852910000054 -0.134 -0.026 1.088 10.427 -21.473 8.863
0.8505050830000016 -0.132 -0.056 1.067 12.237 -13.206 7.405
0.8627735830000063 -0.166 -0.1 1.067 15.328 -1.115 3.771
0.8700573750000018 -0.231 -0.102 1.09 18.748 3.931 2.832
0.882168790999998 -0.279 -0.068 1.102 20.443 -3.473 5.802
0.889489832999999 -0.286 -0.033 1.129 22.656 -19.359 9.588
0.901417207999998 -0.248 -0.024 1.103 25.252 -35.748 12.733
0.9085143329999994 -0.185 -0.028 1.047 26.748 -43.321 14.336
0.9205992079999987 -0.117 -0.037 0.998 26.847 -40.176 14.382
0.9323096659999948 -0.074 -0.024 0.92 24.863 -27.557 13.214
0.9396040830000061 -0.052 -0.011 0.881 20.435 -10.802 10.809
0.9518790829999944 -0.081 0.03 0.866 13.534 5.595 9.244
0.9591970409999959 -0.136 0.034 0.884 7.069 17.466 8.008
0.9714402909999933 -0.157 0.009 0.915 3.397 23.489 6.855
0.9789330410000048 -0.174 -0.05 0.98 3.931 17.618 1.504
0.9910616659999931 -0.235 -0.053 1.044 8.366 3.962 -1.55
1.0029805000000067 -0.27 -0.026 1.056 14.13 -14.588 3.588
1.0103380409999971 -0.228 -0.016 1.033 18.702 -30.992 11.519
1.0223876660000002 -0.156 0.002 0.976 20.679 -38.13 15.214
1.0294232499999936 -0.099 0.035 0.953 19.916 -37.008 15.878
1.0414057910000025 -0.059 0.069 0.882 16.244 -28.092 16.183
1.0487132909999985 -0.023 0.098 0.849 8.916 -14.611 16.221
1.0612032909999982 0.014 0.086 0.837 1.046 3.206 14.847
1.0685380409999965 0.07 0.038 0.846 -3.817 23.038 7.336
1.080788124999998 0.066 -0.004 0.84 -7.649 43.382 -4.779
1.0925071249999974 -0.018 0.001 0.843 -12.42 60.099 -13.405
1.099873040999995 -0.105 0.025 0.893 -16.618 66.336 -15.916
1.1116690829999953 -0.173 0.052 0.952 -17.901 62.374 -13.763
1.1190642910000008 -0.222 0.053 0.975 -17.176 50.954 -10.534
1.1310902080000034 -0.245 0.041 0.983 -16.282 36.885 -6.389
1.1429884159999943 -0.294 0.04 0.975 -16.802 23.55 -0.366
1.1503166659999948 -0.319 0.025 0.97 -17.885 11.237 6.321
1.1623346660000067 -0.294 -0.028 1.01 -13.893 -3.252 9.832
1.1694286249999948 -0.26 -0.085 1.017 -7.443 -18.794 6.718
1.1814362500000044 -0.22 -0.099 0.997 -2.336 -35.214 2.397
1.188731790999995 -0.18 -0.055 0.989 2.878 -47.504 1.084
1.200957833000004 -0.152 0.0 0.943 6.901 -51.023 3.435
1.213029375000005 -0.116 0.05 0.921 10.237 -46.321 7.504
1.220283207999998 -0.087 0.072 0.912 10.511 -39.45 10.519
1.2322946660000014 -0.08 0.071 0.893 8.252 -30.992 11.427
1.2395802909999958 -0.091 0.073 0.915 3.42 -25.137 12.351
1.2518592910000024 -0.085 0.048 0.973 1.176 -21.023 14.42
1.259236040999994 -0.013 -0.034 0.972 3.321 -19.137 9.244
1.2711631659999938 -0.014 -0.054 0.935 3.557 -13.061 1.687
1.278537374999999 -0.037 -0.0 0.914 1.389 -5.87 -3.122
1.2904960409999973 -0.042 0.062 0.927 -0.916 -1.87 -3.412
1.3027758329999983 -0.033 0.097 0.926 -2.427 2.481 -2.244
1.310109416000003 -0.032 0.092 0.897 -6.191 11.389 -1.527
1.3221474580000034 -0.035 0.084 0.87 -11.023 24.344 -1.718
1.3294534159999927 -0.061 0.07 0.882 -16.565 36.313 -2.137
1.3414195000000007 -0.098 0.06 0.902 -21.542 44.473 -2.527
1.3482017500000012 -0.119 0.05 0.931 -25.053 47.275 -2.099
1.360500958000003 -0.121 0.004 0.948 -25.832 45.893 -4.931
1.3725469160000046 -0.142 -0.03 0.967 -26.038 42.634 -10.351
1.379592708000004 -0.165 -0.028 0.988 -26.008 37.023 -13.924
1.3914643749999982 -0.197 -0.027 1.0 -25.046 30.489 -15.527
1.3981117080000018 -0.215 -0.011 1.02 -22.466 23.321 -15.252
1.4105173330000014 -0.245 0.01 1.0 -19.824 15.992 -12.115
1.4224951660000045 -0.254 0.007 0.984 -18.237 9.45 -6.176
1.4298802080000002 -0.236 -0.02 0.988 -16.298 3.87 -3.336
1.4415715410000018 -0.203 -0.064 1.0 -11.649 -0.427 -3.71
1.4489549160000053 -0.188 -0.088 0.998 -6.893 -2.252 -6.282
1.4609549160000057 -0.219 -0.073 0.983 -3.832 -3.321 -7.985
1.473036124999993 -0.236 -0.029 1.003 -1.634 -8.046 -6.718
1.4801209580000005 -0.243 0.002 1.019 -0.275 -17.046 -2.832
1.492331500000006 -0.217 0.01 1.008 1.031 -24.802 -0.397
1.4996772500000048 -0.179 0.0 0.982 0.931 -29.863 -0.389
1.5116528329999994 -0.167 -0.002 0.962 0.748 -30.45 -0.603
1.5189307910000025 -0.158 0.005 0.948 -1.046 -28.298 0.191
1.5310058750000053 -0.129 -0.022 0.976 -0.275 -23.153 -0.244
1.5430818749999986 -0.103 -0.067 0.966 0.397 -16.573 -4.771
1.5500594159999963 -0.113 -0.066 0.97 -0.267 -10.985 -8.649
1.5621404160000054 -0.145 -0.028 0.97 -1.84 -6.26 -8.481
1.5695096660000019 -0.163 -0.006 0.982 -3.511 -3.695 -7.038
1.581428540999994 -0.17 0.007 1.002 -4.733 -4.832 -4.664
1.588707124999999 -0.181 -0.0 0.999 -6.053 -5.878 -3.206
1.6008110829999964 -0.177 -0.011 0.991 -7.13 -7.183 -1.939
1.6127344580000056 -0.178 -0.031 1.014 -6.084 -7.832 -0.527
1.6198533750000053 -0.148 -0.074 1.015 -2.466 -7.634 -2.031
1.6321735829999966 -0.14 -0.09 0.987 0.099 -6.542 -5.252
1.6394104580000004 -0.161 -0.057 1.0 1.855 -6.458 -5.656
1.6514328330000012 -0.15 -0.03 1.026 3.695 -9.565 -5.275
1.6585598329999982 -0.138 0.0 0.984 3.855 -11.45 -3.855
1.6709592079999993 -0.135 0.016 0.981 2.504 -9.87 -3.168
1.682967290999997 -0.12 0.012 0.962 0.908 -6.947 -3.336
1.6899743750000056 -0.132 0.0 0.947 -1.168 -4.664 -4.038
1.7021509159999937 -0.139 -0.016 0.97 -2.366 -4.504 -5.282
1.7091182080000067 -0.145 -0.029 0.996 -2.992 -7.237 -7.122
1.7213770409999967 -0.156 -0.031 1.022 -2.489 -13.015 -8.634
1.7281891659999928 -0.15 -0.013 1.033 -2.42 -19.321 -7.74
1.7404876659999928 -0.121 -0.006 1.032 -2.557 -24.595 -7.137
1.7524330410000033 -0.082 -0.005 1.032 -1.573 -25.794 -6.924
1.7594937500000043 -0.074 -0.006 0.979 -0.618 -20.695 -7.046
1.7714315409999983 -0.083 -0.011 0.963 -0.244 -11.718 -5.794
1.7784492499999942 -0.082 -0.034 0.971 1.473 -4.099 -5.916
1.791031750000002 -0.105 -0.047 0.984 2.847 -2.336 -7.244
1.7980757910000023 -0.131 -0.033 0.992 3.893 -4.901 -7.931
1.8102186250000045 -0.12 -0.02 0.986 4.092 -11.473 -7.061
1.8225504159999986 -0.095 -0.016 0.977 5.611 -15.053 -6.382
1.8293392079999933 -0.095 -0.027 0.933 6.061 -11.908 -5.687
1.8418290829999933 -0.11 -0.031 0.93 5.519 -6.282 -5.061
1.8488063329999989 -0.141 -0.013 0.945 3.687 -4.344 -3.519
1.8610168750000042 -0.111 -0.031 0.985 5.389 -6.687 -3.611
1.8682357080000003 -0.088 -0.047 0.962 7.183 -12.16 -7.061
1.8802396250000015 -0.081 -0.056 0.97 7.435 -16.504 -10.809
1.8923542910000037 -0.07 -0.014 0.961 6.641 -18.351 -12.229
1.8996336659999997 -0.058 0.012 0.935 3.702 -16.183 -11.573
1.9116750000000025 -0.044 0.002 0.927 1.374 -8.954 -10.656
1.9189440410000032 -0.064 -0.024 0.912 -0.74 0.992 -9.695
1.9309449160000014 -0.094 -0.038 0.925 -2.733 8.282 -8.504
1.9370180829999981 -0.134 -0.032 0.96 -3.397 9.137 -6.679
1.9505577080000052 -0.152 -0.028 0.966 -3.076 3.267 -3.901
1.9625429999999966 -0.111 -0.064 1.002 -1.0 -5.74 -4.718
1.9696048330000053 -0.089 -0.078 0.999 0.878 -13.519 -8.634
1.9815936659999949 -0.076 -0.051 0.979 1.29 -17.893 -9.794
1.9889670830000057 -0.031 -0.013 0.983 1.802 -17.008 -8.298
2.0009905830000037 -0.026 -0.0 0.959 3.206 -10.031 -6.137
2.008540249999996 -0.04 0.0 0.96 3.611 0.511 -3.71
2.020482916000006 -0.059 -0.029 0.972 4.496 7.931 -2.0
2.0327675829999947 -0.06 -0.056 0.984 6.939 8.611 -3.198
2.0400372499999975 -0.066 -0.075 0.998 9.802 4.443 -7.198
2.052149583000002 -0.071 -0.047 0.984 10.191 -1.443 -9.435
2.0593780829999986 -0.038 -0.003 0.983 9.901 -6.985 -9.626
2.071624749999998 -0.006 0.022 0.942 7.878 -6.313 -9.344
2.0791537079999927 0.007 0.012 0.919 5.031 4.824 -8.252
2.0911667910000062 -0.006 -0.014 0.92 4.313 19.092 -7.466
2.098472415999993 -0.047 -0.014 0.952 4.527 26.71 -6.282
2.110769250000004 -0.091 -0.003 1.0 6.336 25.198 -4.565
2.1228025409999987 -0.097 -0.025 1.014 9.695 18.656 -5.031
2.1300820409999943 -0.094 -0.045 1.03 13.817 10.145 -7.626
2.1421308750000065 -0.095 -0.031 1.016 16.71 2.756 -9.107
2.1494578329999996 -0.105 0.01 1.002 18.366 -4.664 -9.344
2.1614461249999977 -0.1 0.021 0.997 19.328 -11.221 -9.786
2.1686837499999996 -0.085 0.028 0.991 19.542 -15.122 -9.015
2.180710750000003 -0.076 0.024 0.963 19.992 -15.824 -8.099
2.192729374999999 -0.037 0.02 0.93 20.42 -15.557 -8.458
2.199855124999999 -0.034 0.024 0.932 17.977 -14.0 -8.74
2.211850333000001 -0.001 0.036 0.94 16.038 -10.893 -8.74
2.219356457999993 0.038 0.039 0.916 13.664 -4.099 -9.748
2.2316272909999952 0.028 0.053 0.902 10.458 7.847 -9.557
2.2389249579999984 -0.001 0.067 0.891 8.061 21.802 -7.214
2.251204125000001 -0.045 0.051 0.9 5.237 30.74 -5.641
2.258485207999996 -0.09 0.036 0.921 3.206 31.931 -4.947
2.270731083000001 -0.157 0.023 0.971 3.275 25.725 -3.069
2.2827517500000027 -0.179 -0.004 1.026 4.87 13.092 -2.45
2.2900644159999928 -0.162 0.011 1.03 6.779 -3.908 -3.679
2.302419916000005 -0.118 0.035 1.007 7.542 -18.908 -5.618
2.3096530410000042 -0.08 0.056 0.967 8.145 -23.779 -7.084
2.3217052499999937 -0.045 0.037 0.938 8.023 -19.534 -8.298
2.3289719160000004 -0.029 0.005 0.921 7.0 -10.924 -11.763
2.340982083 -0.058 0.001 0.953 6.092 -6.137 -16.031
2.3530700000000024 -0.079 0.029 0.995 5.588 -9.534 -17.878
2.3603050410000037 -0.085 0.046 1.006 3.733 -17.374 -19.328
2.3723317500000007 -0.045 0.045 1.014 2.718 -23.527 -21.328
2.3796314580000058 -0.027 0.03 0.984 1.916 -21.427 -22.763
2.3916231249999953 -0.035 0.029 0.973 2.229 -13.817 -21.725
2.3989814579999944 -0.057 0.026 0.98 3.336 -6.74 -19.031
2.411134750000002 -0.081 0.035 0.979 4.405 -3.664 -16.832
2.422981957999994 -0.102 0.039 0.979 5.435 -5.092 -14.557
2.4300580000000025 -0.105 0.024 0.98 5.275 -10.153 -11.725
2.4423297080000026 -0.048 0.017 0.992 6.405 -15.863 -11.26
2.4496668750000055 -0.017 0.043 0.974 5.481 -17.397 -10.969
2.4616867499999984 0.037 0.064 0.965 3.305 -12.771 -10.84
2.468916790999998 0.074 0.074 0.932 0.786 -2.031 -11.458
2.481206040999993 0.051 0.049 0.898 -2.321 12.962 -12.198
2.4872798330000023 -0.012 0.012 0.924 -5.305 26.817 -12.092
2.5003438749999987 -0.092 -0.027 0.972 -7.244 29.473 -12.847
