Time AX AY AZ GX GY GZ
0.014368958000005705 -0.041 -0.156 0.983 -2.176 -2.313 3.725
0.026524542000004203 -0.041 -0.156 0.981 -3.55 -1.664 3.198
0.033498792000017374 -0.038 -0.16 0.987 -3.74 -1.374 3.168
0.04602883300000826 -0.036 -0.164 0.996 -3.542 -0.962 2.802
0.05303241700002559 -0.032 -0.156 1.002 -2.481 -0.565 2.191
0.0653209170000082 -0.044 -0.166 1.011 -1.947 -1.122 1.985
0.07741641700002333 -0.042 -0.181 1.01 -2.519 -1.183 1.84
0.08452775000000656 -0.048 -0.19 1.012 -3.573 -0.748 1.305
0.09722158300002093 -0.054 -0.196 1.01 -4.954 -1.969 1.099
0.1043222920000062 -0.049 -0.194 1.007 -4.718 -2.908 0.122
0.1163441250000119 -0.049 -0.187 0.995 -3.573 -2.443 -0.397
0.12341962500002523 -0.042 -0.195 0.986 -1.931 -2.344 -1.122
0.1354364170000224 -0.031 -0.182 0.983 -1.366 -1.885 -1.672
0.14741379200000893 -0.042 -0.183 0.977 -0.878 -1.198 -2.015
0.1547570830000211 -0.039 -0.182 0.969 -0.672 -0.389 -2.42
0.16673750000001064 -0.04 -0.185 0.98 -0.824 0.427 -2.527
0.1740862920000268 -0.039 -0.177 0.964 -1.053 0.038 -2.84
0.18631033300002287 -0.042 -0.172 0.974 0.542 0.366 -2.817
0.19359979200001476 -0.039 -0.175 0.967 1.382 0.847 -2.458
0.20586495800000648 -0.048 -0.184 0.974 1.595 1.183 -2.168
0.2117050420000055 -0.039 -0.178 0.963 1.817 0.947 -2.328
0.225421458000028 -0.037 -0.172 0.97 1.718 1.221 -2.038
0.2376750830000276 -0.038 -0.178 0.959 0.641 0.565 -2.382
0.24506862500001603 -0.035 -0.177 0.964 0.695 0.137 -2.183
0.25742658300001153 -0.034 -0.166 0.961 0.832 1.031 -1.023
0.26438716700002374 -0.038 -0.166 0.965 0.42 1.008 -0.87
0.2767931670000223 -0.032 -0.149 0.964 0.74 1.214 -0.809
0.2841282500000091 -0.033 -0.157 0.976 -0.267 0.786 -0.786
0.29607858300002476 -0.042 -0.168 0.98 -1.565 -0.26 -0.916
0.30203812500002414 -0.049 -0.163 0.982 -3.214 -1.076 -1.824
0.31514583300000254 -0.042 -0.159 0.973 -2.802 -1.26 -1.916
0.3272090000000105 -0.042 -0.166 0.981 -2.42 -1.977 -1.855
0.334551542000014 -0.044 -0.176 0.998 -1.145 -1.733 -1.595
0.34654454200000373 -0.047 -0.189 1.001 0.74 -1.611 -1.473
0.35380250000000046 -0.05 -0.194 1.0 1.023 -2.298 -1.214
0.3661672920000001 -0.036 -0.176 0.994 0.595 -1.947 -0.191
0.3720317080000086 -0.026 -0.166 1.003 -0.496 -1.779 -0.053
0.3850728750000201 -0.019 -0.164 0.974 -2.221 -3.511 -0.794
0.3973344170000246 -0.026 -0.166 0.971 -2.435 -3.763 -1.321
0.4043346250000184 -0.022 -0.17 0.983 -2.542 -3.031 -1.145
0.4165667500000154 -0.024 -0.169 0.984 -3.038 -2.641 -0.42
0.423545292 -0.027 -0.174 0.979 -3.107 -1.863 -0.031
0.4357976250000206 -0.032 -0.188 0.99 -3.672 -1.053 0.26
0.44130758300002526 -0.032 -0.187 0.979 -3.206 0.58 1.366
0.45530154200000084 -0.031 -0.188 0.985 -2.992 0.878 1.626
0.4677102500000103 -0.037 -0.182 0.974 -1.237 0.794 1.221
0.4748835420000148 -0.046 -0.18 0.974 0.802 1.122 0.756
0.48728945800002066 -0.042 -0.187 0.985 1.878 1.321 0.748
0.4946976250000148 -0.036 -0.172 0.979 0.863 0.29 0.221
0.5067428330000041 -0.025 -0.164 0.975 -0.511 -0.58 -0.374
0.51388320800001 -0.03 -0.17 0.976 -2.137 -1.115 -0.527
0.5259922080000194 -0.031 -0.172 0.975 -2.794 -1.595 -1.252
0.5315646670000262 -0.031 -0.169 0.97 -2.397 -1.176 -1.481
0.5453284170000074 -0.034 -0.166 0.965 -2.466 -0.038 -0.954
0.5578371250000203 -0.026 -0.17 0.967 -1.924 0.893 -1.092
0.5651486250000062 -0.029 -0.177 0.972 -0.298 1.084 -1.237
0.5769352920000017 -0.021 -0.187 0.984 -0.29 1.458 -1.023
0.5840987080000275 -0.027 -0.182 0.981 -0.786 1.763 -0.947
0.5964375830000108 -0.023 -0.171 0.977 -1.344 1.916 -1.191
0.6031912920000195 -0.02 -0.187 0.991 -3.176 0.626 -1.542
0.6159375000000011 -0.032 -0.192 0.984 -4.145 0.534 -0.954
0.6278726670000196 -0.027 -0.183 0.998 -4.374 0.359 0.046
0.6353040420000013 -0.035 -0.18 1.014 -5.053 1.321 -0.313
0.6472453750000113 -0.04 -0.189 1.02 -5.252 1.366 -1.26
0.6546980000000246 -0.033 -0.194 1.021 -5.145 0.061 -1.679
0.6676035420000233 -0.044 -0.198 1.017 -3.771 -1.13 -3.107
0.6742724170000258 -0.045 -0.198 1.017 -2.733 -1.939 -4.695
0.685781583000022 -0.031 -0.191 1.013 -4.298 -2.763 -4.458
0.6978426250000211 -0.028 -0.189 1.015 -5.076 -2.588 -5.29
0.7052005830000212 -0.021 -0.171 0.999 -6.519 -1.702 -6.313
0.7170834170000262 -0.01 -0.166 0.994 -8.107 -0.076 -2.779
0.7241893750000088 -0.028 -0.155 1.021 -11.244 -1.832 -2.695
0.7360652080000136 -0.036 -0.165 1.045 -11.931 -1.344 -5.504
0.7430950830000143 -0.026 -0.168 1.081 -11.099 1.115 -7.718
0.755285917000009 -0.01 -0.179 1.101 -11.458 0.527 -9.573
0.7672235830000034 -0.015 -0.212 1.131 -11.557 -0.771 -11.237
0.7742216670000062 -0.023 -0.246 1.153 -10.931 -2.069 -10.092
0.7863687920000189 0.013 -0.271 1.163 -9.87 -0.015 -0.214
0.7935785420000059 -0.062 -0.213 1.213 -16.015 0.824 0.817
0.805906833000023 -0.062 -0.244 1.223 -15.832 5.504 1.382
0.8180454580000003 -0.055 -0.213 1.223 -13.008 10.954 2.565
0.8248597080000195 -0.042 -0.169 1.188 -11.237 13.275 2.695
0.8370903750000025 -0.032 -0.131 1.157 -8.634 12.855 -0.908
0.8440655000000277 0.0 -0.145 1.112 -2.992 11.802 -15.908
0.85651900000002 0.005 -0.105 1.111 2.26 4.359 -29.389
0.8635714170000028 0.055 -0.148 1.117 12.344 -9.16 -16.87
0.8758977500000071 -0.042 -0.232 1.189 6.252 -19.878 -30.45
0.8878450420000092 -0.052 -0.257 1.243 1.718 -20.565 -23.55
0.8948377080000114 -0.05 -0.3 1.274 1.733 -14.649 -17.817
0.9069058750000067 -0.047 -0.272 1.272 -0.832 -9.656 -7.153
0.9142115000000217 -0.03 -0.225 1.227 -3.053 -7.977 4.252
0.9264964170000098 0.01 -0.18 1.185 -7.969 -3.237 7.71
0.933819542000009 0.019 -0.141 1.147 -13.435 -3.061 5.313
0.9459502080000277 0.019 -0.141 1.107 -15.282 -10.954 1.046
0.9577012080000031 0.002 -0.209 1.1 -16.252 -22.168 -7.389
0.9648151670000118 0.016 -0.237 1.095 -17.71 -29.252 -12.901
0.9768252080000082 0.03 -0.433 1.118 -12.328 -32.198 -19.695
0.9837628750000249 -0.021 -0.337 1.131 -6.733 -37.695 -15.145
0.9956360830000222 -0.0 -0.335 1.123 -6.634 -29.595 -15.099
1.0077925830000254 0.018 -0.266 1.107 -10.969 -19.527 -2.206
1.0150584170000059 0.016 -0.264 1.082 -5.496 -11.382 6.466
1.0271251670000083 0.038 -0.203 1.06 1.29 -3.618 14.13
1.0345751250000035 0.043 -0.209 1.057 3.511 -2.221 16.618
1.0467454580000037 0.057 -0.198 1.051 5.374 -7.122 10.687
1.0541169580000087 0.107 -0.203 1.009 4.573 -15.855 0.725
1.065981958000009 0.006 -0.294 1.081 8.977 -9.817 -2.351
1.072060917000016 0.014 -0.386 1.074 7.313 -16.252 -6.229
1.0855031250000025 -0.021 -0.303 1.063 1.748 -14.496 -1.267
1.09763966700001 -0.004 -0.299 1.025 1.641 -8.74 9.0
1.1046950000000209 0.027 -0.278 0.996 6.13 -7.969 13.687
1.117122208000012 0.016 -0.229 1.013 9.0 1.87 16.252
1.1243696670000247 0.042 -0.199 0.975 8.405 0.924 16.122
1.1365896250000276 0.047 -0.192 0.976 5.427 -1.489 12.679
1.143771500000014 0.031 -0.193 0.966 6.985 -2.305 7.458
1.1561280000000238 0.014 -0.231 0.995 2.748 -4.336 9.427
1.1634493330000168 -0.002 -0.239 1.0 5.733 -7.702 3.412
1.1756553750000194 -0.016 -0.261 0.972 5.649 -4.786 1.252
1.182900458000006 0.014 -0.26 0.996 7.214 -13.664 5.939
1.1954401670000152 0.046 -0.246 0.961 2.099 -2.282 9.45
1.2076549170000135 0.05 -0.292 0.974 3.679 -2.794 22.42
1.2149515830000155 0.002 -0.264 0.982 4.359 -4.489 17.893
1.2271750000000168 0.009 -0.245 0.967 9.214 -2.473 18.672
1.2346008330000018 0.012 -0.23 0.983 13.847 2.954 20.0
1.2466452500000003 0.018 -0.216 0.982 14.489 -0.076 18.137
1.2536555000000078 0.009 -0.214 1.004 15.511 -2.42 13.107
1.2660945830000117 0.021 -0.224 1.004 12.962 -6.351 7.13
1.2730132500000195 0.021 -0.265 1.0 15.992 -11.527 -0.137
1.285507000000024 0.026 -0.276 1.015 13.366 -12.183 0.656
1.297725958000001 0.004 -0.324 1.042 18.405 -8.282 12.237
1.3047546250000153 0.028 -0.27 1.017 26.588 -4.382 14.427
1.317195833000028 0.024 -0.224 0.994 27.725 0.183 20.885
1.3241516250000132 0.007 -0.191 0.983 26.16 -0.786 25.626
1.336390917000017 0.019 -0.125 0.953 26.573 -1.504 17.702
1.3433680000000265 0.02 -0.134 0.987 28.656 -0.328 12.107
1.3558866670000214 0.044 -0.116 0.976 30.725 -1.847 6.519
1.3628421250000144 0.049 -0.113 1.01 27.733 -2.679 5.595
1.3753911670000036 0.053 -0.142 1.012 23.298 -7.115 3.42
1.387720542000011 0.032 -0.166 1.018 22.305 -13.038 3.824
1.3945331250000095 0.032 -0.179 1.032 27.924 -14.038 4.405
1.4069899170000042 0.058 -0.164 1.009 26.962 -10.069 11.786
1.41397412500001 0.074 -0.101 1.001 19.221 -10.893 20.221
1.4261955420000163 0.055 -0.086 0.991 15.664 -8.42 19.344
1.4331854580000254 0.051 -0.043 0.982 22.153 -3.58 13.137
1.445678958000002 0.073 -0.019 0.968 25.359 -0.183 3.466
1.457895958000023 0.085 -0.021 0.955 23.397 -2.496 -5.855
1.4649343750000128 0.083 -0.09 0.98 22.313 -5.931 -13.511
1.477136750000028 0.065 -0.146 1.022 17.588 -7.099 -13.603
1.4838900000000024 0.06 -0.185 1.021 13.679 -7.359 -11.87
1.496374292000013 0.067 -0.141 0.988 5.947 -4.366 0.366
1.5038113750000264 0.068 -0.195 0.968 4.649 -8.55 -3.031
1.5158807920000186 0.043 -0.186 0.949 3.695 -12.466 5.191
1.523189125000016 0.047 -0.125 0.925 5.916 -12.115 3.313
1.5353947080000125 0.043 -0.12 0.913 12.214 -8.588 3.916
1.5478936250000004 0.056 -0.074 0.916 13.786 -8.053 6.626
1.5549225420000141 0.036 -0.06 0.915 13.427 -9.634 6.626
1.567402042000026 0.052 -0.068 0.933 13.725 -8.939 2.87
1.5744646250000187 0.054 -0.087 0.948 17.023 -8.122 0.405
1.5869554170000129 0.083 -0.088 0.937 16.115 -7.672 1.13
1.5940202080000176 0.087 -0.114 0.952 14.214 -8.069 -0.534
1.6062133330000279 0.08 -0.116 0.963 12.489 -7.878 -0.153
1.6136218330000247 0.065 -0.111 0.962 12.664 -7.634 -0.053
1.6259561670000267 0.069 -0.075 0.948 8.992 -4.366 0.16
1.6334027920000267 0.068 -0.074 0.942 7.702 -2.412 -1.008
1.64547033300002 0.078 -0.063 0.927 2.87 -0.824 -3.145
1.65764362500002 0.095 -0.095 0.927 0.939 0.282 -5.458
1.6651850000000081 0.083 -0.155 0.96 2.466 -3.26 -7.344
1.6772078330000113 0.095 -0.202 0.972 6.267 -2.641 -5.069
1.6845000830000174 0.08 -0.212 0.998 13.565 -2.038 -2.115
1.696747500000015 0.087 -0.178 0.937 23.252 3.55 -1.076
1.7038370000000214 0.076 -0.126 0.934 22.389 5.817 -1.595
1.716235250000011 0.081 -0.073 0.905 25.008 -2.565 -4.382
1.7232390000000066 0.068 -0.034 0.909 25.74 -3.954 -7.74
1.7356657080000275 0.055 -0.054 0.906 27.183 -3.122 -10.71
1.7476667500000076 0.046 -0.056 0.91 23.275 -1.695 -11.168
1.754850375000018 0.066 -0.096 0.921 17.336 -3.405 -11.366
1.7671841670000106 0.073 -0.122 0.95 12.595 -5.061 -8.282
1.77446525000002 0.07 -0.15 0.958 13.588 -2.931 -5.267
1.786519625000011 0.066 -0.163 0.951 16.656 0.084 -0.107
1.7939122500000053 0.053 -0.146 0.944 20.466 5.374 5.977
1.8061137080000265 0.045 -0.096 0.923 25.107 8.687 9.023
1.8136193750000018 0.054 -0.041 0.88 30.046 8.053 7.198
1.8256699170000275 0.054 -0.02 0.845 32.389 1.053 -0.229
1.8378837500000031 0.063 0.02 0.804 29.053 -3.924 -5.58
1.8452062500000181 0.042 0.0 0.786 29.458 -8.832 -10.87
1.8572347500000035 0.049 0.002 0.777 23.45 -12.901 -12.511
1.8645149170000082 0.047 0.005 0.778 15.534 -16.26 -13.221
1.876450917000028 0.055 -0.007 0.788 7.29 -17.687 -12.473
1.8835920000000215 0.059 -0.029 0.79 2.038 -12.992 -9.481
1.8957465000000013 0.071 -0.059 0.795 -1.176 -7.046 -8.336
1.9078577920000157 0.038 -0.01 0.816 -4.603 -1.977 -2.687
1.9150730420000173 0.052 -0.034 0.767 -3.718 3.008 1.718
1.9279097920000083 0.029 0.015 0.779 3.534 8.718 8.977
1.9348739170000044 0.063 0.027 0.768 11.542 5.832 11.374
1.9476350000000195 0.043 0.054 0.776 14.046 3.641 7.565
1.9546396670000092 0.055 0.069 0.762 12.252 -0.267 4.0
1.9671339580000051 0.085 0.086 0.788 10.809 -4.634 -3.16
1.9743935000000192 0.099 0.072 0.82 6.344 -9.221 -9.855
1.9866614580000146 0.123 0.083 0.815 -2.771 -12.076 -12.611
1.9937230420000276 0.113 0.054 0.818 -6.672 -9.595 -13.153
2.005912833000025 0.098 -0.001 0.852 -5.305 -3.298 -9.687
