Time AX AY AZ GX GY GZ
0.0192479170000012 0.01 0.213 1.012 -28.397 -26.534 -9.221
0.0262715420000034 0.009 0.238 1.085 -30.557 -26.611 -9.489
0.0384905829999979 0.005 0.28 1.094 -36.481 -24.992 -12.214
0.045221749999996 0.012 0.318 1.142 -48.229 -27.405 -15.794
0.0575279170000015 0.051 0.335 1.156 -61.87 -29.878 -19.076
0.0694409580000012 0.125 0.313 1.203 -75.55 -29.229 -19.443
0.0765803329999954 0.139 0.266 1.239 -84.13 -19.557 -17.107
0.0889122079999964 0.11 0.219 1.196 -87.061 -9.008 -14.58
0.095562208000004 0.043 0.165 1.111 -83.427 -3.366 -13.962
0.1080953329999943 -0.015 0.107 1.004 -74.511 -6.977 -16.229
0.120204208000004 -0.017 0.082 0.917 -63.84 -19.969 -19.023
0.1270786249999957 0.035 0.083 0.93 -57.656 -36.87 -20.565
0.1393900000000059 0.116 0.1 1.036 -58.695 -50.023 -22.069
0.1464223750000002 0.223 0.099 1.126 -62.053 -48.031 -21.641
0.1583929579999932 0.281 0.08 1.167 -63.954 -29.58 -20.13
0.1640645829999982 0.276 0.048 1.135 -62.489 -6.802 -18.702
0.177310625000004 0.213 0.004 1.026 -58.756 4.053 -15.168
0.1897763329999975 0.14 -0.031 0.953 -55.252 -1.504 -9.969
0.1968176670000048 0.091 -0.04 0.911 -54.336 -17.237 -6.534
0.2090495829999952 0.096 -0.023 0.916 -56.366 -35.489 -5.893
0.2160087080000039 0.196 -0.024 0.963 -61.458 -46.382 1.992
0.2284580000000033 0.159 0.077 0.956 -63.748 -52.901 0.496
0.235287624999998 0.302 0.036 0.998 -65.664 -53.351 -4.137
0.2475748330000016 0.368 0.003 1.044 -64.733 -41.687 -0.71
0.2597568329999973 0.326 0.02 1.032 -61.275 -23.443 -0.954
0.2668042499999927 0.325 -0.016 0.991 -57.16 -10.802 -2.435
0.2792852500000009 0.271 -0.011 0.975 -53.336 -10.183 4.206
0.2865701669999936 0.206 0.008 0.982 -52.885 -15.344 6.947
0.2987230829999987 0.205 0.017 0.974 -54.947 -23.092 8.191
0.305952542 0.259 0.033 0.986 -57.863 -33.008 14.435
0.3179731670000052 0.271 0.079 1.037 -64.427 -37.237 16.13
0.3300058330000013 0.317 0.093 1.046 -72.344 -33.031 15.786
0.3373260000000044 0.356 0.09 1.04 -80.519 -24.038 17.229
0.3493872500000066 0.322 0.078 1.031 -88.84 -13.595 21.366
0.356733707999993 0.257 0.046 0.958 -96.29 -8.573 25.397
0.368674249999998 0.234 -0.003 0.901 -103.16 -15.702 31.656
0.3754442080000046 0.226 -0.052 0.858 -104.389 -27.046 39.382
0.3876831670000058 0.224 -0.083 0.826 -106.634 -34.076 44.397
0.3997882080000039 0.222 -0.093 0.816 -106.145 -36.511 46.832
0.4070250420000008 0.243 -0.094 0.775 -106.489 -34.534 46.519
0.4191154170000004 0.209 -0.07 0.742 -107.176 -24.588 43.191
0.4264259170000031 0.146 -0.049 0.708 -115.557 -11.168 37.015
0.4384480829999972 0.081 -0.055 0.652 -125.748 -6.443 33.038
0.4457290419999964 0.015 -0.08 0.596 -135.473 -12.466 31.008
0.4579004579999974 -0.023 -0.151 0.511 -141.855 -26.908 32.046
0.4697768329999974 -0.081 -0.22 0.433 -136.702 -42.534 32.282
0.4770917919999959 -0.063 -0.282 0.337 -122.603 -59.092 34.573
0.4894442079999948 -0.13 -0.249 0.236 -102.053 -64.237 26.794
0.4966781669999989 -0.094 -0.303 0.112 -70.344 -59.71 10.863
0.5086662500000045 -0.079 -0.361 -0.041 -26.519 -50.489 -1.786
0.5160232500000035 -0.09 -0.425 -0.175 34.336 -33.519 -14.901
0.5279014169999954 -0.044 -0.501 -0.226 102.305 -25.473 -23.832
0.5395366249999967 0.017 -0.506 -0.208 167.527 -20.29 -26.618
0.5463558329999927 0.042 -0.471 -0.139 239.145 0.076 -32.061
0.5584841250000068 0.062 -0.35 0.09 250.137 19.458 -46.366
0.5702244999999948 -0.205 1.088 2.0 -229.534 -250.13 -84.496
0.5770034170000002 0.595 0.651 1.001 -113.687 -162.74 -37.031
0.5893242079999936 0.816 0.042 1.321 69.649 -37.947 3.702
0.596402458 1.221 -0.592 2.0 137.366 67.069 7.061
0.6082332919999942 0.931 -1.242 1.486 109.244 128.931 15.221
0.6199785419999984 0.228 -1.155 0.954 90.031 134.298 11.076
0.6270502919999927 -0.412 -0.469 0.757 68.618 143.702 -20.832
0.6391049169999974 -0.513 0.089 0.127 57.733 70.511 -59.74
0.6462008329999946 -0.073 0.257 0.162 49.13 -73.473 -61.817
0.657981042000003 0.376 0.164 0.586 30.397 -146.145 -23.489
0.6700068330000022 0.533 0.122 1.113 8.786 -142.282 12.817
0.6770208749999966 0.724 0.068 1.49 -26.046 -100.221 24.427
0.6890580419999992 0.86 -0.017 1.547 -63.389 -50.351 29.58
0.6967008329999942 0.81 -0.04 1.386 -88.435 -7.656 42.382
0.7084999169999975 0.644 -0.032 1.139 -101.84 15.122 54.26
0.7157598329999928 0.46 -0.063 0.949 -109.206 4.756 65.794
0.7277976249999938 0.273 -0.123 0.877 -117.45 -13.107 66.298
0.7397557080000041 0.158 -0.219 0.75 -122.099 -24.031 60.405
0.7470796669999942 0.109 -0.298 0.543 -116.397 -33.618 53.893
0.7590944579999928 0.041 -0.325 0.396 -100.992 -42.74 44.122
0.7665015420000003 -0.032 -0.332 0.281 -77.328 -46.725 25.023
0.7786549580000042 -0.06 -0.358 0.182 -52.634 -43.519 2.901
0.7859604169999983 -0.107 -0.358 0.07 -27.786 -32.954 -16.137
0.7979778330000045 -0.151 -0.342 -0.083 -0.038 -22.641 -30.389
0.8100158750000048 -0.132 -0.361 -0.235 32.947 -17.183 -40.901
0.81736875 -0.055 -0.433 -0.302 77.595 -7.107 -46.29
0.8288767500000063 0.007 -0.481 -0.332 132.664 19.687 -47.71
0.8359770830000031 0.052 -0.489 -0.245 194.947 57.076 -50.214
0.8475049169999949 0.05 -0.413 -0.083 250.137 86.855 -56.672
0.8593148749999955 -0.428 0.839 2.0 159.603 24.977 -73.42
0.8664615830000031 1.161 0.832 2.0 -250.13 -250.13 -37.504
0.8782055420000034 0.814 0.476 0.294 -85.298 -176.527 -51.458
0.8902541669999948 2.0 -0.554 1.596 106.092 -68.389 -29.763
0.8972729580000021 2.0 -1.391 2.0 104.443 97.603 16.191
0.9090887920000056 0.819 -1.14 1.506 58.962 108.458 55.939
0.9157767500000062 -0.114 -0.516 1.441 26.626 157.015 61.145
0.9282204999999948 -1.058 -0.051 0.569 31.924 187.099 -2.794
0.9399700000000024 -0.775 -0.193 -0.118 49.763 54.321 -61.42
0.947357917000005 -0.122 -0.349 0.094 59.939 -151.275 -65.985
0.9590860419999956 0.222 -0.202 0.952 40.115 -244.618 -50.595
0.9663129169999962 0.611 -0.052 1.43 8.603 -219.382 -33.244
0.9782128330000006 0.933 0.167 1.656 -32.389 -152.489 -28.191
0.9900199580000048 1.273 0.164 1.62 -71.71 -96.885 -18.298
0.9974025420000032 1.364 0.005 1.59 -103.725 -35.45 18.046
1.0091787920000002 1.049 -0.146 1.353 -127.046 23.427 56.366
1.0165384999999958 0.597 -0.249 0.986 -136.725 48.58 66.237
1.0282412079999972 0.315 -0.337 0.715 -135.84 37.046 57.542
1.0402126249999952 0.103 -0.385 0.595 -131.427 5.229 42.565
1.0475074999999947 0.035 -0.412 0.448 -124.992 -34.252 28.397
1.0595578329999995 0.109 -0.435 0.364 -114.412 -66.55 19.061
1.067003624999998 0.216 -0.427 0.316 -101.214 -78.725 13.939
1.0788719170000007 0.285 -0.418 0.313 -86.359 -64.534 11.679
1.0860078749999929 0.265 -0.405 0.273 -75.901 -35.328 11.092
1.0984298749999937 0.167 -0.365 0.141 -68.634 -16.13 5.733
1.1057326250000017 0.082 -0.324 -0.017 -57.847 -9.557 -1.183
1.117736082999997 0.012 -0.304 -0.19 -38.038 -9.656 -11.58
1.1297985420000032 -0.016 -0.335 -0.281 -7.664 -1.298 -21.405
1.1368221670000054 -0.042 -0.383 -0.332 30.176 15.55 -30.237
1.1488921250000033 -0.033 -0.437 -0.406 77.809 40.832 -37.809
1.155733957999999 -0.016 -0.444 -0.402 135.008 74.397 -48.573
1.167599542000005 0.041 -0.425 -0.293 194.176 103.359 -60.611
1.1791183750000016 0.098 -0.362 -0.175 249.878 116.962 -73.901
1.185918749999999 0.147 -0.266 0.018 250.137 115.947 -90.153
1.1979807499999993 -0.316 1.875 2.0 -99.023 -64.183 -121.84
1.2097889580000043 1.325 0.634 0.555 -250.13 -250.13 -43.84
1.216888707999999 2.0 0.713 1.23 -17.771 -230.832 -17.153
1.228679416999995 2.0 -0.771 2.0 101.084 102.84 59.229
1.234618416999993 1.787 -1.416 0.936 121.977 250.137 106.046
1.2472951249999935 0.454 -1.363 0.633 123.87 192.794 128.237
1.2593214169999951 -1.114 -0.654 0.884 85.794 136.153 83.275
1.2664052920000015 -1.728 -0.067 0.722 52.321 56.87 -40.427
1.2784380420000048 -0.39 -0.171 0.369 37.084 -51.947 -83.13
1.290246874999994 0.24 -0.098 0.058 52.122 -167.298 -75.389
1.2972709579999986 0.737 -0.044 0.778 43.061 -250.13 -62.298
1.3093097919999934 1.211 -0.025 1.666 8.206 -195.649 -29.74
1.316626499999998 1.372 -0.01 1.775 -37.542 -76.542 8.74
1.3287920829999962 1.33 -0.055 1.444 -69.718 20.405 35.611
1.335993541999997 1.057 -0.172 1.064 -82.603 66.679 60.328
1.3479744170000032 0.622 -0.274 0.838 -83.817 70.275 70.748
1.3600440830000051 0.343 -0.343 0.688 -82.954 56.618 67.893
1.3673323750000037 0.167 -0.332 0.527 -81.023 26.885 60.702
1.3793252499999935 0.089 -0.266 0.48 -80.405 -16.924 46.84
1.3866976249999965 0.116 -0.258 0.408 -80.496 -58.916 30.924
1.3986325829999942 0.213 -0.274 0.393 -77.679 -82.221 17.947
1.405959917000004 0.323 -0.333 0.396 -73.443 -76.992 12.84
1.4182549580000057 0.374 -0.377 0.36 -67.191 -48.244 16.71
1.430209167000001 0.305 -0.393 0.23 -57.0 -18.473 20.0
1.4375695420000056 0.183 -0.414 0.073 -42.084 3.679 17.504
1.4495617080000045 0.063 -0.402 -0.069 -21.069 15.947 11.221
1.4568809170000063 -0.021 -0.398 -0.145 4.618 22.153 1.435
1.468636042 -0.087 -0.373 -0.233 35.855 27.351 -12.542
1.4757217079999947 -0.093 -0.376 -0.274 77.16 40.397 -32.153
1.4877145420000062 -0.042 -0.404 -0.243 128.931 64.542 -52.405
1.4993333329999956 0.056 -0.415 -0.108 190.275 99.672 -72.718
1.5061685830000044 0.17 -0.387 0.057 248.84 121.313 -95.473
1.5179775000000006 0.089 0.373 2.0 67.061 74.397 -110.122
1.529885582999995 1.308 0.616 2.0 -250.13 -250.13 -16.282
1.5368547500000034 2.0 0.653 0.679 -57.908 -250.13 -16.13
1.5485333750000052 2.0 -0.489 2.0 48.573 36.191 47.962
1.5555795829999963 1.826 -1.313 1.006 116.595 250.137 91.618
1.5675837919999935 0.403 -1.24 0.842 104.481 209.641 115.168
1.5792968330000008 -0.982 -0.737 0.638 75.458 102.786 78.267
1.5867148749999984 -1.67 -0.143 0.44 58.008 -11.405 -22.58
1.5987046249999963 -0.516 -0.134 0.199 55.496 -122.069 -78.107
1.6057371250000043 0.28 -0.086 0.26 57.496 -226.885 -81.473
1.6175659999999965 0.868 -0.005 0.916 49.397 -250.13 -72.733
1.629246957999996 1.41 0.001 1.624 15.305 -156.031 -40.733
1.636380416999998 1.515 0.028 1.636 -31.008 -20.786 2.603
1.648443125 1.25 -0.017 1.233 -58.145 48.191 35.321
1.655389999999997 0.848 -0.131 0.943 -68.458 60.237 56.466
1.667667042000005 0.49 -0.229 0.726 -69.023 30.298 59.496
1.680075666999997 0.356 -0.296 0.726 -73.809 -5.74 50.489
1.6869323330000014 0.376 -0.303 0.721 -79.527 -26.901 48.275
1.6994994580000051 0.428 -0.279 0.692 -82.924 -39.046 48.832
1.706475999999995 0.441 -0.297 0.653 -82.122 -41.076 46.183
1.718696417000004 0.407 -0.364 0.594 -76.71 -35.527 38.527
1.7256885420000003 0.379 -0.435 0.499 -66.893 -27.939 28.29
1.738010833000004 0.342 -0.454 0.424 -55.374 -20.351 21.542
1.7437951250000054 0.295 -0.438 0.343 -43.267 -14.176 18.069
1.7574490420000046 0.222 -0.396 0.278 -33.153 -13.878 15.115
1.769747124999995 0.15 -0.341 0.216 -26.908 -17.45 8.588
1.776742833 0.117 -0.314 0.168 -21.916 -21.458 -1.137
1.7893261669999987 0.125 -0.308 0.141 -17.153 -18.58 -9.275
1.7964994170000068 0.136 -0.287 0.104 -8.031 -13.13 -12.809
1.8085595419999976 0.114 -0.29 0.021 8.626 0.038 -23.252
1.8142775000000029 0.124 -0.327 -0.087 36.244 20.756 -36.206
1.8271196670000052 0.148 -0.388 -0.188 78.809 51.977 -46.847
1.8391413330000008 0.143 -0.404 -0.221 131.496 86.947 -56.695
1.8459359170000056 0.096 -0.379 -0.206 180.763 102.305 -68.74
1.8575079999999955 0.071 -0.333 -0.109 229.954 108.908 -83.237
1.8693126670000024 0.109 -0.176 0.772 250.137 116.214 -108.412
1.8761325830000004 1.43 1.33 2.0 -250.13 13.71 -20.534
1.8880738750000037 1.602 0.77 -0.706 -116.733 -250.13 -20.374
1.8999701670000064 2.0 -0.328 1.532 5.298 -86.733 42.359
1.907074792000003 1.921 -1.49 1.595 101.137 214.008 73.588
1.9188746250000008 0.595 -1.509 0.218 139.198 221.115 101.038
1.925915083000007 -0.735 -0.739 0.518 88.618 40.885 68.168
1.9378339579999988 -1.264 -0.211 0.465 66.137 -107.985 -12.969
1.9500231250000013 -0.514 -0.09 0.543 60.038 -193.328 -70.87
1.9570538749999995 0.386 -0.229 0.625 55.954 -221.84 -80.198
1.9688503750000024 1.011 -0.32 0.918 42.16 -207.023 -55.351
1.9762153749999951 1.378 -0.191 1.358 6.13 -131.779 -4.176
1.988176249999995 1.24 0.105 1.369 -34.885 -36.382 30.992
1.999973333 0.991 0.069 1.064 -52.557 17.344 33.824
2.007322208000005 0.888 -0.272 0.916 -57.458 37.435 48.237
2.0193341669999967 0.597 -0.42 0.842 -62.443 42.137 57.725
2.0266713750000065 0.37 -0.431 0.699 -65.924 21.046 54.198
2.0386408330000023 0.268 -0.372 0.613 -66.122 -10.458 44.336
2.045958749999997 0.297 -0.351 0.6 -65.023 -36.565 35.565
2.0579557920000013 0.342 -0.357 0.614 -66.069 -45.092 33.412
2.070228208000003 0.314 -0.363 0.531 -67.122 -39.084 30.679
2.077524083 0.268 -0.378 0.421 -66.824 -36.924 27.321
2.089636041999995 0.206 -0.325 0.324 -67.504 -39.321 21.924
2.0968175 0.207 -0.313 0.243 -63.74 -27.954 13.031
2.109068625000006 0.185 -0.3 0.157 -51.534 -1.221 5.092
2.1161660420000032 0.141 -0.375 -0.048 -26.687 33.336 -7.076
2.1279582920000024 0.048 -0.444 -0.26 16.588 53.252 -20.099
2.139729958000004 0.0 -0.484 -0.336 67.176 63.824 -32.595
2.146537667000004 0.009 -0.407 -0.26 109.504 71.718 -44.084
2.158423666999994 0.009 -0.318 -0.142 144.191 89.221 -56.901
2.170213000000004 -0.031 -0.249 -0.08 178.015 106.573 -72.237
2.177070333000003 2.0 0.986 2.0 -250.13 250.137 -19.626
2.188847624999994 0.465 0.003 -2.0 -250.13 -250.13 -24.198
2.196134458000003 2.0 -0.362 0.342 -38.977 -200.099 8.718
2.207947500000003 2.0 -1.53 1.154 50.985 227.725 69.008
2.219776292000006 0.525 -1.321 0.354 100.481 204.061 81.58
2.2270699169999943 -0.267 -0.491 0.201 88.023 42.939 60.122
2.239079042 -1.122 -0.122 0.26 72.557 -142.389 -8.641
2.2461957499999983 -0.589 -0.363 0.825 68.16 -201.794 -81.771
2.258189833000003 0.419 -0.611 1.046 41.542 -150.557 -84.603
2.270067124999997 0.929 -0.444 0.769 14.634 -146.931 -64.26
2.277049875000003 1.248 -0.217 0.946 -1.756 -127.427 -32.13
2.289256457999997 1.232 0.036 1.457 -32.16 -33.267 0.275
2.296505292000006 0.908 -0.151 1.109 -51.489 36.099 14.351
2.3086569169999933 0.724 -0.396 0.792 -55.0 25.634 19.382
2.3159205000000043 0.64 -0.525 0.764 -53.412 -3.168 18.824
2.3279445830000043 0.609 -0.51 0.76 -52.389 -11.977 17.954
2.3402109999999965 0.643 -0.457 0.67 -49.71 -10.962 18.206
2.347519292000001 0.576 -0.413 0.562 -43.756 -19.595 17.618
2.359598792 0.511 -0.384 0.528 -39.282 -23.115 15.847
2.36689475 0.525 -0.382 0.512 -38.031 -17.672 14.924
2.378913499999996 0.557 -0.379 0.482 -39.046 -13.756 16.466
2.386425416999998 0.521 -0.354 0.401 -39.168 -6.656 19.87
2.398415583000002 0.414 -0.336 0.348 -38.817 2.695 22.214
2.4057173329999983 0.293 -0.34 0.253 -38.038 6.023 20.008
2.4177605830000033 0.197 -0.367 0.119 -31.534 4.336 13.206
2.429991208000004 0.127 -0.383 -0.01 -15.977 3.931 3.885
2.437057249999995 0.093 -0.387 -0.075 4.557 6.504 -7.695
2.448916041999994 0.112 -0.384 -0.138 30.832 13.588 -19.359
2.4559683749999976 0.124 -0.379 -0.196 61.26 31.069 -29.977
2.4677341249999927 0.104 -0.355 -0.266 95.908 56.237 -39.557
2.4795447919999987 0.097 -0.335 -0.282 131.573 77.885 -48.588
2.486540500000004 0.091 -0.321 -0.252 173.511 100.687 -60.046
2.498278166999995 0.124 -0.312 -0.077 219.84 120.557 -76.939
