Time AX AY AZ GX GY GZ
0.01916166600130964 -0.03 -0.105 1.093 -6.053 12.023 -33.87
0.02587583300191909 -0.034 -0.11 1.11 -5.183 13.565 -36.008
0.03840558300726116 -0.027 -0.106 1.103 -3.977 14.313 -38.008
0.05017733300337568 -0.018 -0.1 1.093 -3.29 15.611 -40.046
0.05718779101152904 -0.008 -0.101 1.074 -1.832 17.832 -41.481
0.06905787500727456 -0.0 -0.064 1.069 -2.122 19.947 -42.458
0.07621183300216217 0.003 -0.074 1.086 -2.458 21.603 -42.626
0.08813395800825674 0.012 -0.093 1.088 -2.55 23.565 -43.939
0.10020645800977945 0.007 -0.092 1.095 -3.084 24.855 -44.374
0.10711195800104178 0.019 -0.08 1.103 -2.817 26.137 -44.176
0.11925279100250918 -0.007 -0.076 1.1 -1.634 26.954 -43.565
0.12601091600663494 -0.009 -0.068 1.115 -1.29 25.817 -43.947
0.1380144580034539 -0.01 -0.088 1.121 -1.542 23.412 -43.947
0.1501832909998484 0.005 -0.087 1.116 -0.695 22.099 -43.962
0.15711833300883882 0.018 -0.084 1.107 0.565 22.756 -43.153
0.1692759580037091 0.018 -0.076 1.089 0.718 24.702 -43.908
0.1763972500048112 0.019 -0.063 1.097 1.107 25.809 -44.13
0.18868929101154208 0.002 -0.051 1.112 1.893 25.137 -43.275
0.19451833300990984 -0.008 -0.039 1.126 2.298 23.244 -43.176
0.20766654099861626 -0.015 -0.041 1.124 2.779 20.405 -42.046
0.21983570800512098 -0.018 -0.033 1.123 3.29 17.527 -41.206
0.2266345829993952 0.001 -0.04 1.117 2.664 17.145 -40.656
0.2389462499995716 -0.006 -0.033 1.115 2.206 17.481 -40.275
0.24574554100399837 -0.017 -0.018 1.118 0.992 16.725 -40.336
0.25782574999902863 0.0 -0.016 1.115 -1.802 18.252 -40.435
0.2700900409981841 0.008 -0.015 1.135 -3.305 17.924 -41.611
0.2768878330098232 0.046 -0.038 1.103 -3.809 20.191 -42.718
0.2890566660062177 0.057 -0.06 1.099 -3.427 23.198 -44.916
0.2956819160026498 0.072 -0.073 1.073 -2.695 27.924 -47.122
0.30805170800886117 0.094 -0.058 1.065 -2.84 34.405 -49.321
0.32006025000009686 0.085 -0.042 1.093 -4.229 41.412 -50.351
0.32684249999874737 0.046 -0.013 1.139 -6.038 44.71 -49.611
0.3391362080001272 0.002 0.004 1.173 -7.229 45.565 -46.504
0.34588908300793264 -0.043 0.013 1.23 -7.687 41.649 -43.023
0.3578285830008099 -0.078 -0.0 1.233 -7.382 34.466 -38.374
0.37018229100794997 -0.086 -0.024 1.252 -6.481 26.214 -34.191
0.37678262501140125 -0.09 -0.042 1.255 -4.198 17.107 -30.466
0.3889218330004951 -0.079 -0.049 1.21 -3.0 11.084 -27.374
0.39559491600084584 -0.052 -0.057 1.175 -3.015 8.626 -25.298
0.4079203330038581 -0.056 -0.1 1.176 -1.45 7.313 -24.344
0.4202059579984052 -0.063 -0.118 1.16 2.183 7.427 -25.183
0.42724054100108333 -0.063 -0.115 1.14 5.076 9.0 -28.496
0.43927341600647196 -0.05 -0.117 1.123 7.053 10.74 -31.962
0.44629866600735113 -0.03 -0.11 1.107 7.252 12.809 -36.565
0.45828954099852126 -0.0 -0.101 1.1 6.16 16.916 -39.618
0.4704386250086827 0.011 -0.099 1.098 5.359 22.359 -41.977
0.47745366601157 0.017 -0.096 1.111 3.427 28.71 -43.802
0.4897564999992028 -0.005 -0.093 1.136 1.214 32.489 -45.45
0.49665108299814165 -0.039 -0.078 1.159 -0.626 32.534 -45.954
0.508538916008547 -0.068 -0.056 1.183 -3.176 28.191 -44.954
0.5206012499984354 -0.051 -0.078 1.177 -2.656 23.351 -44.183
0.527750624998589 -0.065 -0.07 1.167 0.84 20.061 -43.58
0.5395253750029951 -0.062 -0.065 1.128 4.053 17.328 -43.137
0.5466584160021739 -0.062 -0.072 1.114 6.397 16.313 -43.214
0.5585612499999115 -0.042 -0.068 1.09 8.427 15.595 -45.046
0.5657704160112189 0.005 -0.078 1.066 8.962 18.221 -47.107
0.5778575410076883 0.031 -0.064 1.057 7.634 23.962 -50.282
0.5900255000015022 0.021 -0.051 1.095 4.298 29.298 -52.74
0.5971500410087174 0.005 -0.033 1.119 1.832 32.565 -54.687
0.6089595410012407 -0.016 -0.034 1.136 -0.092 34.542 -56.183
0.6159553330071503 -0.032 -0.034 1.161 -1.626 31.26 -54.779
0.6279174579976825 -0.027 -0.048 1.157 -0.595 26.443 -52.176
0.6400085409986787 -0.024 -0.036 1.128 0.985 23.748 -48.534
0.6467992079997202 -0.034 -0.045 1.138 2.863 21.229 -44.519
0.6589914159994805 -0.059 -0.042 1.133 5.504 16.427 -40.145
0.6659340830083238 -0.07 -0.05 1.113 6.901 11.649 -35.931
0.6780750000034459 -0.077 -0.084 1.132 8.679 7.168 -34.061
0.6902155410061823 -0.064 -0.103 1.124 10.107 3.985 -34.267
0.6971058330091182 -0.022 -0.125 1.114 10.931 3.74 -36.695
0.7093171660089865 -0.001 -0.131 1.096 12.595 7.405 -40.252
0.716285708011128 0.03 -0.109 1.069 12.511 13.244 -43.298
0.7283598330104724 0.033 -0.072 1.046 9.962 22.13 -46.351
0.7404625409981236 -0.004 -0.062 1.069 7.557 29.435 -48.084
0.7473642910044873 -0.066 -0.036 1.108 5.427 29.519 -48.397
0.7595717500080355 -0.076 -0.037 1.146 4.344 25.74 -47.115
0.766258707997622 -0.092 -0.057 1.173 6.489 21.214 -47.122
0.7785762080020504 -0.078 -0.056 1.183 10.443 17.076 -47.336
0.7905025830114027 -0.056 -0.066 1.165 14.504 15.153 -46.756
0.7974042910063872 -0.04 -0.025 1.116 13.382 15.389 -46.298
0.8095135410112562 -0.024 -0.003 1.104 6.931 19.137 -46.038
0.8164981250010896 -0.019 0.019 1.112 -4.656 24.328 -46.985
0.828367750000325 -0.025 -0.021 1.167 -12.611 28.282 -48.328
0.8402865000098245 -0.044 -0.034 1.208 -14.206 29.038 -50.168
0.8471863750019111 -0.022 -0.026 1.204 -13.618 29.595 -50.924
0.8590327499987325 0.005 -0.021 1.194 -12.924 31.824 -52.45
0.8659262910077814 0.018 -0.006 1.169 -12.893 36.824 -52.252
0.8777990410017082 -0.004 0.034 1.164 -15.13 40.13 -50.069
0.8899919160030549 -0.029 0.054 1.156 -21.29 43.947 -46.885
0.8969187910115579 -0.07 0.031 1.202 -26.359 44.237 -44.122
0.9087883330066688 -0.113 0.003 1.26 -26.725 38.794 -41.42
0.9157536249986151 -0.128 -0.045 1.274 -23.603 30.901 -39.672
0.9276158330030739 -0.144 -0.063 1.266 -19.382 20.321 -39.611
0.9395206250046613 -0.104 -0.058 1.221 -15.786 14.115 -41.061
0.9462240410066443 -0.054 -0.048 1.161 -15.435 13.885 -42.42
0.9581579579971731 -0.039 -0.034 1.145 -15.695 17.191 -43.603
0.9699733750021551 -0.041 -0.031 1.136 -15.634 20.977 -44.328
0.9767187910038047 -0.058 -0.012 1.163 -16.725 23.397 -45.45
0.9888762500049779 -0.065 -0.04 1.186 -19.0 23.466 -46.496
0.9956900410033995 -0.073 -0.069 1.226 -18.489 20.71 -48.519
1.0076051659998484 -0.062 -0.084 1.231 -14.496 15.359 -49.947
1.0194186250009807 -0.007 -0.073 1.198 -8.687 13.565 -49.55
1.0261345830076607 -0.001 -0.066 1.153 -1.733 12.847 -48.641
1.0384561250102706 0.007 -0.039 1.132 1.916 13.405 -45.435
1.0442272500076797 -0.009 -0.008 1.139 2.824 13.702 -42.275
1.0575645830103895 -0.03 -0.003 1.187 3.481 11.183 -38.893
1.0697960000106832 -0.046 -0.017 1.167 4.42 8.214 -36.87
1.076928708003834 -0.044 -0.05 1.196 7.122 7.794 -36.809
1.0888152080005966 -0.043 -0.079 1.205 11.336 4.756 -39.542
1.0959806250029942 -0.027 -0.07 1.168 14.16 3.504 -40.42
1.1080283330084058 0.007 -0.059 1.135 14.351 4.466 -42.221
1.1202395830041496 0.007 -0.04 1.137 13.725 5.16 -42.595
1.127020125000854 0.007 -0.021 1.131 12.779 5.458 -41.573
1.1392527080024593 0.027 -0.031 1.154 13.29 7.153 -41.786
1.1464155410067178 0.008 -0.023 1.156 15.382 9.405 -40.038
1.1585093330068048 -0.022 -0.007 1.178 16.84 7.122 -38.733
1.1704437080043135 -0.026 -0.027 1.176 19.305 3.618 -36.878
1.1776437500084285 -0.014 -0.022 1.162 20.076 3.718 -37.634
1.1894468329992378 -0.01 -0.021 1.175 19.802 6.893 -39.366
1.19642391600064 -0.011 -0.009 1.167 16.359 10.305 -43.237
1.2085730410035467 -0.018 0.003 1.183 10.847 11.504 -45.901
1.2158036250039004 -0.026 0.033 1.179 3.878 10.748 -47.115
1.2276574999996228 -0.026 0.018 1.193 -1.473 10.817 -46.664
1.2397238330013352 -0.033 -0.016 1.208 -0.221 11.115 -45.763
1.246658791002119 -0.059 -0.008 1.211 2.282 6.847 -45.519
1.2587486249976791 -0.048 -0.013 1.183 4.076 1.847 -44.58
1.2657416660076706 -0.019 -0.038 1.141 6.534 1.748 -44.435
1.2781359580112621 0.002 -0.08 1.136 16.046 3.84 -43.931
1.2902312080113916 0.011 -0.067 1.071 27.214 7.366 -45.321
1.2971776659978786 -0.01 -0.067 1.06 37.344 9.252 -46.992
1.3092622080002911 0.001 -0.068 1.046 47.45 13.718 -50.092
1.3163383750070352 -0.029 -0.033 1.053 54.656 15.893 -52.954
1.3283702500048093 -0.037 0.002 1.079 57.0 15.603 -54.931
1.3402404160005972 -0.028 0.024 1.101 56.16 18.595 -57.16
1.3473962910065893 -0.053 0.053 1.152 51.679 17.206 -59.099
1.3592369160032831 -0.05 0.071 1.176 46.763 13.656 -59.351
1.366477041010512 -0.016 0.11 1.179 40.588 12.321 -58.748
1.3783108330098912 -0.008 0.113 1.184 34.733 11.916 -55.466
1.3904692500072997 -0.005 0.095 1.162 32.687 13.153 -51.962
1.3973321660014335 -0.012 0.112 1.149 31.695 13.359 -47.992
1.409383500009426 -0.046 0.105 1.148 30.084 9.641 -44.321
1.4164000830060104 -0.066 0.094 1.149 28.878 2.183 -42.214
1.428876541001955 -0.076 0.097 1.156 26.466 -6.137 -43.58
1.4358393750007963 -0.077 0.12 1.146 18.901 -13.0 -45.557
1.447595416000695 -0.084 0.146 1.178 7.588 -22.931 -47.183
1.4596000000019558 -0.008 0.142 1.167 -1.595 -25.26 -46.542
1.4666755409998586 0.068 0.101 1.135 -4.374 -14.649 -44.496
1.4788560000015423 0.102 0.091 1.096 -3.298 2.16 -44.038
1.4859272910107393 0.081 0.089 1.073 -0.962 18.305 -44.382
1.4980529580061557 0.056 0.1 1.07 0.221 31.282 -44.672
1.5104527500079712 0.049 0.108 1.093 0.908 40.855 -46.046
1.517611000002944 0.001 0.117 1.146 2.458 42.366 -48.824
1.5298092080047354 -0.034 0.139 1.203 3.687 36.863 -49.183
1.5364771250024205 -0.035 0.146 1.234 5.229 27.855 -50.061
1.5488043750083307 -0.02 0.134 1.241 8.473 19.794 -50.038
1.5559684580075555 0.0 0.157 1.238 11.534 14.359 -50.649
1.5680832500074757 0.05 0.177 1.192 13.031 13.954 -51.863
1.5802452500065556 0.097 0.183 1.177 12.26 19.298 -54.328
1.5874212909984635 0.098 0.206 1.186 11.374 23.878 -55.824
1.599463625010685 0.148 0.19 1.156 12.16 30.908 -55.771
1.6064224160072627 0.164 0.204 1.129 14.252 40.031 -55.374
1.6185100830043666 0.143 0.197 1.132 19.061 47.573 -52.588
1.6257075410103425 0.087 0.203 1.138 26.855 50.061 -47.969
1.637905875002616 0.011 0.279 1.206 27.153 43.641 -42.244
1.6499846660008188 0.039 0.231 1.263 26.763 39.282 -38.962
1.6571797910000896 0.012 0.245 1.28 24.802 38.107 -40.282
1.6693424999975832 0.026 0.28 1.301 17.244 35.092 -43.015
1.6764384160051122 0.073 0.261 1.286 6.107 38.908 -47.008
1.6885851660044864 0.044 0.252 1.305 -1.405 38.351 -49.466
1.6944205410109134 0.009 0.243 1.33 -3.947 27.374 -47.496
1.7076455000060378 -0.018 0.212 1.332 -0.427 9.313 -42.466
1.719950124999741 0.012 0.202 1.256 3.855 -2.321 -38.466
1.7271374160045525 0.062 0.203 1.188 4.42 -1.962 -37.405
1.7392247910029255 0.1 0.159 1.166 5.053 8.191 -36.748
1.746464208001271 0.114 0.086 1.21 11.771 21.573 -36.214
1.7585331660084194 0.095 -0.002 1.354 23.252 31.275 -36.061
1.7704300830082502 0.112 -0.084 1.477 40.359 39.817 -41.573
1.7774336660077097 0.073 -0.065 1.649 58.275 44.053 -51.267
1.7898700410005404 0.001 0.062 1.767 70.847 36.588 -56.107
1.7967476250050822 0.039 0.22 1.755 69.015 30.435 -56.053
1.8088607910030987 0.065 0.381 1.673 49.13 32.336 -50.603
1.815952582997852 0.071 0.416 1.595 22.145 36.794 -43.672
1.828139999997802 0.044 0.374 1.48 -0.542 38.794 -37.153
1.8401963750075083 0.03 0.27 1.338 -8.122 44.695 -32.023
1.8471342499979073 -0.009 0.209 1.194 -6.588 49.008 -30.191
1.859238875011215 -0.067 0.198 1.082 -3.084 47.435 -31.206
1.8662149160081754 -0.133 0.219 1.035 -2.359 37.412 -32.733
1.8783989580115303 -0.166 0.199 1.013 -1.214 23.374 -32.099
1.8904687910107896 -0.172 0.189 0.982 -0.87 11.725 -32.58
1.8973849580070237 -0.163 0.169 0.933 -3.168 5.565 -36.443
1.9094402080081636 -0.168 0.161 0.956 -7.244 1.099 -42.443
1.9165203330048826 -0.198 0.139 1.023 -9.099 -10.435 -48.786
1.9285519999975804 -0.171 0.115 1.033 -4.542 -24.13 -53.519
1.9404616250103572 -0.103 0.115 1.014 0.672 -34.015 -57.198
1.947667915999773 -0.019 0.102 0.997 7.55 -32.595 -61.206
1.9595230830018409 0.062 0.121 0.993 13.405 -22.244 -64.878
1.9666631660074927 0.113 0.142 1.056 18.298 -9.267 -66.931
1.9788412080088165 0.13 0.169 1.116 23.588 5.26 -66.519
1.9859149160038214 0.078 0.242 1.254 26.626 9.0 -63.878
1.9983572080091108 0.044 0.314 1.285 22.763 2.015 -57.802
2.010389832998044 0.089 0.307 1.294 14.573 0.137 -54.466
2.017574958008481 0.095 0.286 1.273 9.16 3.42 -53.16
2.030060791003052 0.098 0.264 1.271 9.313 7.076 -50.443
2.037403708003694 0.085 0.26 1.25 11.221 10.122 -49.763
2.0493531250103842 0.074 0.267 1.24 12.595 12.595 -50.214
2.0562752499972703 0.077 0.27 1.224 15.0 15.107 -51.321
2.0682948750036303 0.08 0.283 1.192 17.26 16.573 -52.565
2.080504291006946 0.083 0.317 1.189 16.893 16.939 -52.466
2.0877037500031292 0.091 0.356 1.169 12.145 17.588 -51.504
2.0997085830022115 0.065 0.357 1.209 6.924 15.023 -49.229
2.106919124998967 0.084 0.344 1.196 3.603 12.015 -47.183
2.1192587910045404 0.085 0.348 1.19 0.0 9.58 -45.832
2.126299499999732 0.107 0.32 1.181 -2.71 10.244 -45.527
2.13849504099926 0.103 0.295 1.183 -2.595 12.107 -45.153
2.1442963750014314 0.113 0.292 1.174 -0.84 14.565 -44.534
2.1578340830019442 0.096 0.294 1.188 1.489 14.42 -43.313
2.1699268750089686 0.076 0.284 1.18 4.611 11.588 -41.107
2.1770005410071462 0.065 0.29 1.156 6.634 8.595 -39.863
2.1895195830002194 0.058 0.273 1.131 7.092 5.763 -39.794
2.1966735830064863 0.061 0.302 1.141 5.595 2.794 -41.26
2.2091565000009723 0.09 0.292 1.136 2.405 2.954 -42.58
2.2163049160008086 0.099 0.292 1.108 0.702 3.954 -43.977
2.2286244580027414 0.113 0.292 1.107 -0.733 4.435 -43.771
2.23581179100438 0.127 0.286 1.094 -1.916 6.107 -43.359
2.248042916005943 0.133 0.272 1.103 0.328 8.084 -41.954
2.2602749580109958 0.101 0.3 1.133 1.908 7.015 -40.031
2.267272958008107 0.103 0.329 1.146 -1.504 4.107 -37.511
2.2794618750049267 0.123 0.3 1.138 -5.206 6.458 -35.405
2.286455666006077 0.107 0.271 1.139 -6.534 10.71 -34.733
2.2987757500086445 0.097 0.262 1.147 -5.099 11.038 -33.656
2.30563250000705 0.091 0.251 1.134 -2.389 10.458 -33.115
2.3181072500010487 0.1 0.252 1.111 1.168 11.374 -32.656
2.330168541011517 0.128 0.25 1.073 4.611 17.305 -32.542
2.33734829101013 0.114 0.256 1.063 8.481 25.618 -31.855
2.349479208001867 0.069 0.272 1.078 10.847 27.908 -30.641
2.3566712500032736 0.023 0.281 1.111 12.275 23.496 -29.328
2.3688483750011073 0.02 0.283 1.11 12.702 17.702 -28.634
2.376052541003446 0.041 0.26 1.082 14.87 17.061 -29.237
2.3881437910022214 0.031 0.252 1.079 18.603 19.267 -30.16
2.4001758329977747 0.026 0.219 1.102 26.336 21.061 -31.924
2.4071101250010543 -0.015 0.24 1.109 34.656 17.267 -33.015
2.419262791008805 -0.008 0.275 1.102 38.603 13.29 -33.718
2.426216125008068 0.006 0.297 1.077 38.282 13.107 -35.992
2.438409541005967 0.037 0.319 1.063 34.58 17.664 -38.947
2.4504317910032114 0.043 0.336 1.059 29.267 23.244 -41.893
2.457639583008131 0.014 0.4 1.101 19.038 24.366 -42.74
2.469795958008035 0.044 0.392 1.114 7.756 25.092 -41.885
2.4767209999990882 0.05 0.372 1.129 -1.031 27.771 -41.565
2.4890300410042983 0.032 0.358 1.144 -7.382 29.145 -41.84
2.4962680830067256 0.031 0.319 1.179 -8.916 28.664 -42.58
2.508271500002593 0.003 0.31 1.201 -6.679 24.947 -43.023
2.5204927080048947 0.002 0.314 1.201 -3.977 19.786 -44.115
2.5274241660081316 0.014 0.318 1.184 -1.802 15.626 -44.55
