Time AX AY AZ GX GY GZ
0.013854916999989086 0.034 0.217 0.842 6.435 -5.023 5.023
0.02677337499999055 0.07 0.23 0.838 6.603 2.176 8.29
0.03371870799999499 0.097 0.234 0.846 7.84 6.969 8.695
0.04628404199999636 0.104 0.24 0.838 7.725 10.397 7.45
0.05316616700000054 0.097 0.266 0.827 5.687 11.641 7.061
0.06572699999999543 0.085 0.237 0.827 2.725 13.504 4.786
0.07291729199999963 0.038 0.212 0.836 0.015 14.977 0.435
0.08517704199999798 -0.009 0.227 0.871 -1.55 10.519 -1.71
0.09228279199999179 -0.041 0.224 0.885 -1.069 1.26 -0.313
0.1044532920000023 -0.052 0.236 0.905 -0.664 -9.626 0.718
0.11183545800000161 0.005 0.265 0.898 1.458 -19.458 3.42
0.12392545800000221 0.075 0.257 0.875 2.099 -21.336 2.924
0.1361849580000012 0.094 0.23 0.829 -0.168 -10.939 -0.221
0.14357595799999956 0.062 0.223 0.827 -4.664 2.992 -1.55
0.15573683299999175 0.0 0.221 0.889 -7.939 9.802 -1.183
0.1630515829999979 -0.069 0.208 0.944 -9.237 5.878 -0.977
0.1753270829999991 -0.104 0.202 1.004 -7.29 -7.382 0.382
0.18239391699999885 -0.046 0.226 1.029 -1.198 -24.191 3.626
0.19475120799999956 0.056 0.23 0.981 4.824 -32.389 5.076
0.20194316699999604 0.147 0.247 0.915 6.733 -24.618 4.389
0.2141772079999953 0.168 0.251 0.862 4.336 -3.397 2.183
0.22651816699999472 0.113 0.247 0.857 -0.878 21.573 0.221
0.2337396669999947 0.017 0.244 0.917 -5.595 34.962 -0.427
0.2458292079999893 -0.084 0.242 1.01 -6.542 27.45 0.924
0.2532069579999927 -0.12 0.212 1.043 -3.779 5.489 1.954
0.2652879580000018 -0.081 0.204 1.026 0.962 -17.26 2.122
0.2726522079999967 0.014 0.205 0.999 5.603 -34.0 3.053
0.28472429199999283 0.113 0.228 0.92 7.214 -34.092 3.015
0.2922532500000017 0.142 0.24 0.854 5.176 -16.809 3.405
0.3046609579999995 0.164 0.237 0.832 1.046 9.084 4.725
0.31199691700000187 0.124 0.228 0.864 -2.527 32.924 0.244
0.32400229199998876 0.01 0.233 0.914 -3.725 43.344 -4.924
0.3360726249999999 -0.088 0.246 0.995 -1.13 35.42 -4.359
0.3435707919999942 -0.113 0.221 1.019 2.275 14.046 0.229
0.3555863329999909 -0.088 0.212 1.0 5.115 -5.71 5.29
0.3628774169999929 -0.038 0.203 0.96 6.863 -15.679 8.786
0.3751181250000002 0.027 0.227 0.934 7.611 -16.466 11.053
0.38235104199999626 0.085 0.221 0.868 7.13 -8.557 11.794
0.39464074999999355 0.071 0.21 0.836 2.954 6.405 8.725
0.402171041999992 0.024 0.22 0.848 -2.084 20.527 4.29
0.41416379199999653 -0.016 0.226 0.886 -5.458 23.481 1.366
0.4262120829999958 -0.055 0.219 0.918 -6.252 16.679 1.16
0.43374216699999124 -0.077 0.218 0.931 -5.672 6.412 3.122
0.4457994999999926 -0.075 0.23 0.961 -3.87 -2.405 7.206
0.4528025420000006 -0.034 0.231 0.966 -1.16 -10.092 11.229
0.46507862499998964 0.017 0.221 0.963 0.031 -13.366 9.924
0.4723732079999934 0.046 0.24 0.948 1.069 -14.382 6.0
0.4847358749999984 0.04 0.258 0.912 -0.481 -11.702 3.802
0.49190058299998896 0.041 0.236 0.878 -3.74 -5.992 1.412
0.5042425829999928 0.022 0.229 0.885 -6.588 0.221 -0.878
0.5165504579999975 0.01 0.232 0.935 -7.634 2.305 0.496
0.5237518750000021 0.02 0.226 0.949 -7.824 0.534 2.435
0.5359932920000006 0.027 0.212 0.955 -8.863 1.893 2.0
0.5434068750000023 0.018 0.224 0.951 -10.695 4.634 1.031
0.5557501669999994 0.024 0.207 0.959 -11.443 6.45 0.634
0.5630981249999962 0.01 0.188 0.975 -9.893 8.847 0.145
0.575380999999993 -0.018 0.177 0.969 -6.725 9.344 0.763
0.5824424999999991 -0.045 0.187 0.971 -3.397 6.366 3.626
0.5947131249999984 -0.048 0.194 0.987 -0.29 -0.641 5.168
0.6022176669999908 -0.053 0.214 0.971 1.244 -6.992 7.275
0.6142719999999997 -0.041 0.235 0.978 1.153 -12.466 10.618
0.6262544169999984 0.026 0.233 0.979 0.756 -17.397 11.099
0.6335326250000008 0.086 0.232 0.956 0.023 -18.542 7.84
0.6459010829999983 0.112 0.211 0.934 -1.588 -13.771 3.321
0.6531010419999888 0.125 0.208 0.903 -3.122 -3.374 -0.305
0.665163917000001 0.079 0.186 0.906 -4.702 10.405 -2.733
0.6723899169999896 0.018 0.195 0.914 -7.26 19.863 -3.069
0.6844414579999949 -0.039 0.218 0.949 -8.702 21.458 -1.641
0.696518791999992 -0.059 0.229 0.982 -8.557 16.458 0.71
0.7037572919999917 -0.048 0.228 0.993 -5.519 10.588 3.16
0.7161464579999972 -0.007 0.202 1.0 -1.771 6.573 3.534
0.7235726250000027 0.005 0.195 0.965 0.244 7.626 2.885
0.735820750000002 -0.016 0.21 0.945 0.466 11.489 5.023
0.7431435419999985 -0.024 0.194 0.948 0.198 15.588 5.84
0.7550450419999919 -0.042 0.196 0.957 -0.099 16.687 3.137
0.7627637079999943 -0.068 0.221 0.975 0.42 10.947 2.099
0.7749374579999966 -0.052 0.224 0.972 0.611 1.969 4.779
0.7822130419999951 -0.023 0.208 0.964 -0.87 -3.443 7.756
0.7941503329999904 0.024 0.213 0.954 -3.275 -1.87 7.664
0.8065002080000028 0.054 0.248 0.956 -5.962 3.634 5.496
0.8139963750000021 0.062 0.261 0.943 -8.122 10.748 3.458
0.8259824579999986 0.036 0.221 0.951 -9.748 20.649 2.061
0.8334476249999909 -0.01 0.181 0.978 -10.031 28.351 -0.557
0.8456548329999976 -0.079 0.187 1.014 -8.595 28.725 -0.611
0.852791707999998 -0.112 0.19 1.061 -4.427 16.969 3.924
0.8647642919999896 -0.102 0.186 1.052 -0.046 2.565 9.779
0.8720634579999995 -0.032 0.199 1.023 3.519 -8.382 12.893
0.8845424579999985 0.04 0.204 0.958 3.756 -10.87 11.954
0.8967097919999958 0.092 0.212 0.927 2.221 -2.87 7.099
0.903769374999996 0.072 0.196 0.891 -2.962 12.45 2.55
0.9159107919999911 0.032 0.183 0.889 -8.481 26.634 -0.695
0.9230617500000022 -0.036 0.175 0.942 -10.626 30.672 -2.55
0.9349657499999893 -0.084 0.205 1.003 -10.168 21.771 -1.511
0.9425135829999931 -0.097 0.219 1.029 -7.405 6.847 1.855
0.954636416999989 -0.072 0.217 1.005 -4.58 -5.328 4.443
0.9665353749999923 -0.013 0.203 0.965 -4.229 -9.84 6.092
0.9740588330000008 0.021 0.186 0.948 -6.015 -7.42 6.618
0.9863536669999888 0.034 0.179 0.932 -8.427 0.786 4.267
0.9936983749999939 0.017 0.188 0.954 -10.359 9.267 -0.756
1.0054303749999889 -0.029 0.187 1.008 -10.763 12.901 -4.389
1.012741707999993 -0.058 0.188 1.025 -9.84 8.427 -5.565
1.0247498749999977 -0.069 0.202 1.017 -8.328 0.435 -3.282
1.0314466669999973 -0.048 0.198 0.988 -8.191 -2.824 -0.725
1.0439732499999934 -0.019 0.194 0.939 -8.931 1.221 0.008
1.0562427499999956 -0.005 0.181 0.93 -9.328 9.092 -0.183
1.0631700830000028 -0.03 0.191 0.917 -10.763 15.641 -0.076
1.0754702079999987 -0.088 0.187 0.936 -12.359 20.733 0.008
1.0822041670000004 -0.122 0.188 0.989 -13.336 17.443 -0.847
1.0945269579999888 -0.146 0.184 1.031 -12.756 4.328 -1.229
1.100087000000002 -0.122 0.182 1.037 -10.725 -11.977 1.237
1.1134910419999926 -0.072 0.178 0.988 -9.267 -22.504 3.252
1.125752124999991 -0.033 0.161 0.946 -9.969 -22.053 3.649
1.1327717079999928 -0.015 0.139 0.932 -10.611 -11.427 5.305
1.1450068749999929 -0.008 0.135 0.947 -9.985 0.412 3.931
1.1522833749999961 -0.054 0.163 0.97 -9.153 8.298 3.641
1.1645690000000002 -0.082 0.159 0.992 -7.794 11.84 6.122
1.1715565419999905 -0.066 0.142 0.996 -6.511 9.191 6.664
1.1840953749999983 -0.043 0.164 0.974 -5.702 5.305 6.389
1.1965072499999962 -0.009 0.172 0.936 -5.603 4.42 7.473
1.2037995829999915 0.032 0.17 0.91 -6.802 8.038 7.466
1.2160947919999927 0.046 0.171 0.88 -8.649 15.611 5.26
1.22341304199999 0.013 0.175 0.882 -10.588 25.763 2.908
1.2353803329999948 -0.023 0.152 0.907 -12.153 31.84 -0.779
1.2422997079999902 -0.076 0.168 0.934 -12.557 28.435 -3.046
1.2547670829999902 -0.108 0.169 0.961 -12.206 19.229 -1.443
1.2665787079999973 -0.103 0.171 0.95 -12.397 9.87 0.466
1.2738768330000028 -0.084 0.167 0.943 -13.847 3.282 1.611
1.2858627079999962 -0.07 0.17 0.943 -17.527 1.137 2.252
1.29322037499999 -0.074 0.146 0.963 -18.611 6.015 2.13
1.305339416999999 -0.065 0.114 0.984 -17.672 10.962 2.053
1.312541207999999 -0.082 0.096 1.013 -15.008 12.443 1.985
1.3246139169999935 -0.101 0.109 1.032 -12.595 9.511 4.046
1.3307172079999958 -0.106 0.14 1.023 -12.397 3.756 6.076
1.343909999999994 -0.066 0.161 1.008 -12.55 -0.504 6.206
1.3559123750000026 -0.026 0.169 0.99 -12.443 -0.794 3.863
1.3635064169999964 0.007 0.174 0.961 -13.87 4.443 1.847
1.3755034169999902 0.007 0.151 0.94 -17.542 14.641 0.366
1.3825302079999915 -0.02 0.137 0.931 -21.458 26.344 -1.13
1.3945557079999986 -0.083 0.121 0.979 -23.748 31.168 -3.275
1.4065989169999966 -0.138 0.113 1.006 -24.351 26.313 -5.794
1.413659624999994 -0.173 0.097 1.022 -22.42 17.046 -5.962
1.4257300829999906 -0.174 0.085 1.017 -19.076 8.183 -3.847
1.4330439999999953 -0.152 0.079 0.996 -16.366 3.885 -0.198
1.4451471249999912 -0.119 0.099 0.998 -14.198 3.733 3.947
1.4525722079999923 -0.078 0.112 0.973 -13.183 7.351 6.038
1.4643880829999887 -0.052 0.117 0.981 -12.84 12.977 5.359
1.4762996669999922 -0.053 0.114 0.989 -12.023 17.374 3.565
1.4835288749999904 -0.071 0.094 0.984 -11.779 19.962 1.344
1.4957270000000022 -0.089 0.077 0.986 -12.504 18.733 0.221
1.5026929579999972 -0.096 0.083 0.983 -14.885 15.252 -0.878
1.514919207999995 -0.089 0.108 1.003 -14.947 12.924 -4.282
1.526690000000002 -0.11 0.114 0.967 -15.115 11.595 -1.084
1.5337391669999931 -0.082 0.075 0.984 -14.145 13.733 -3.542
1.5455821249999957 -0.123 0.074 0.973 -13.786 14.504 -3.069
1.5526184169999908 -0.153 0.082 0.975 -12.931 12.878 -0.374
1.5645018749999906 -0.136 0.071 0.972 -11.137 10.137 -0.084
1.5718534169999998 -0.12 0.064 0.968 -9.344 8.176 -1.206
1.5843675830000024 -0.109 0.062 0.968 -9.237 8.565 -1.832
1.5964409999999987 -0.116 0.082 0.974 -9.954 10.542 -1.924
1.6034500419999915 -0.117 0.086 0.976 -10.031 11.481 -0.45
1.6155158749999998 -0.115 0.054 0.979 -10.542 11.427 -0.305
1.6226440829999973 -0.126 0.048 0.981 -11.374 6.87 -2.061
1.6345883329999964 -0.139 0.068 0.951 -13.267 1.45 -2.443
1.646630082999991 -0.116 0.062 0.938 -14.649 0.534 -2.221
1.654018917000002 -0.094 0.06 0.906 -15.641 5.809 -3.115
1.6658002079999932 -0.096 0.053 0.929 -17.664 13.42 -5.359
1.672881167 -0.131 0.048 0.988 -18.511 19.267 -8.557
1.6849264169999998 -0.175 0.045 1.028 -18.061 21.229 -7.458
1.6920260830000018 -0.161 0.028 1.06 -14.924 17.298 -4.985
1.7039864169999959 -0.152 0.017 1.044 -12.374 9.969 -3.748
1.71598608299999 -0.136 0.038 1.015 -11.366 6.16 -2.802
1.7233781669999928 -0.119 0.05 0.962 -11.733 6.931 -2.382
1.7351032079999982 -0.134 0.041 0.931 -14.282 10.977 -0.366
1.7425130829999915 -0.123 0.033 0.938 -17.092 15.618 -2.779
1.7542096669999978 -0.143 0.044 0.956 -17.679 16.374 -6.031
1.7662514999999956 -0.168 0.031 0.967 -18.221 14.794 -7.397
1.7733121249999897 -0.175 0.009 0.978 -18.58 13.168 -7.939
1.7853745829999923 -0.196 0.01 1.002 -17.855 13.656 -6.214
1.7923543750000022 -0.205 0.016 1.035 -16.725 11.473 -2.725
1.804531666999992 -0.202 -0.002 1.042 -14.985 7.26 -1.42
1.8164626249999998 -0.187 -0.022 1.01 -13.763 5.496 -0.191
1.8235057919999917 -0.156 -0.041 1.01 -11.588 3.397 0.802
1.8355824169999977 -0.141 -0.036 1.006 -8.366 1.718 -2.458
1.8428224169999936 -0.145 -0.003 0.971 -5.733 1.542 -3.298
1.854867083000002 -0.121 0.009 0.931 -6.321 6.191 -2.664
1.8622685830000023 -0.093 -0.005 0.891 -9.817 16.817 -4.626
1.8739470419999975 -0.129 0.01 0.896 -14.771 26.84 -9.435
1.8859842919999892 -0.194 0.019 0.924 -19.351 31.87 -10.031
1.8930685830000016 -0.237 -0.002 0.98 -21.153 28.458 -8.618
1.9049204999999887 -0.231 -0.029 1.014 -19.511 17.359 -7.061
1.9119158749999912 -0.236 -0.027 1.023 -16.595 6.168 -6.939
1.9239832079999957 -0.2 -0.02 1.002 -14.893 0.947 -4.183
1.936039749999992 -0.177 -0.019 0.978 -14.58 0.748 -4.832
1.943090541999993 -0.188 -0.002 0.965 -15.847 3.321 -5.504
1.9551178749999991 -0.183 -0.011 0.973 -16.42 6.137 -5.71
1.9621401249999906 -0.175 -0.026 0.981 -16.046 7.168 -6.26
1.9742528329999942 -0.183 -0.041 0.989 -15.733 8.153 -7.466
1.9859880420000025 -0.192 -0.043 0.975 -16.153 10.802 -6.847
1.993070082999992 -0.196 -0.071 0.974 -16.298 16.031 -5.481
2.004908416999996 -0.2 -0.072 0.988 -15.542 16.84 -7.092
2.0119032919999995 -0.208 -0.053 0.997 -13.42 14.786 -10.023
2.023799832999998 -0.214 -0.047 0.993 -10.611 13.29 -9.137
2.0359011669999916 -0.216 -0.062 0.956 -10.206 14.458 -7.45
2.042902374999997 -0.213 -0.059 0.929 -12.328 17.824 -7.511
2.054780957999995 -0.226 -0.039 0.926 -16.099 22.321 -7.641
2.0663956669999948 -0.227 -0.038 0.955 -17.992 26.046 -7.763
2.0737965000000003 -0.277 -0.034 0.974 -16.496 20.985 -11.55
2.0852668329999915 -0.26 -0.08 0.958 -16.183 19.649 -8.481
2.0925501250000025 -0.291 -0.081 0.99 -13.947 13.55 -9.344
2.1045287919999964 -0.332 -0.06 1.014 -13.267 1.344 -3.542
2.1161599169999903 -0.349 -0.056 1.002 -12.969 -10.511 1.389
2.123442208 -0.293 -0.081 0.974 -13.427 -17.359 7.099
2.1354185419999965 -0.201 -0.096 0.947 -13.847 -18.534 6.321
2.1426417499999957 -0.154 -0.057 0.942 -15.229 -11.893 2.389
2.1541734169999955 -0.148 -0.058 0.897 -17.229 1.214 -0.374
2.1662675829999927 -0.119 -0.096 0.937 -16.809 16.908 -4.786
2.173276791999996 -0.155 -0.099 0.965 -15.542 24.824 -9.985
2.185176708 -0.233 -0.07 0.973 -15.145 27.198 -11.198
2.1922079999999937 -0.287 -0.052 0.973 -15.336 23.847 -8.527
2.2039777079999965 -0.281 -0.071 0.958 -14.244 19.282 -6.908
2.215738541999997 -0.269 -0.08 0.944 -13.275 15.13 -5.191
2.2228643750000003 -0.239 -0.105 0.928 -11.847 14.458 -3.977
2.2347455000000025 -0.223 -0.102 0.917 -9.634 15.145 -5.527
2.2416297919999977 -0.219 -0.083 0.908 -8.321 14.878 -7.458
2.2537960419999905 -0.208 -0.087 0.874 -9.481 16.924 -9.115
2.2656997079999996 -0.223 -0.096 0.862 -12.802 21.084 -12.298
2.272593999999998 -0.275 -0.097 0.886 -16.71 24.916 -16.336
2.284566374999997 -0.33 -0.08 0.918 -18.702 21.473 -16.779
2.2964437499999946 -0.372 -0.079 0.967 -18.267 12.031 -13.13
2.3034806249999917 -0.365 -0.099 0.945 -17.908 4.756 -9.931
2.315575041999992 -0.323 -0.124 0.934 -16.29 3.718 -7.947
2.322738291999997 -0.296 -0.134 0.934 -14.443 6.084 -5.725
2.3343554579999903 -0.281 -0.138 0.916 -12.908 10.206 -4.107
2.3465964999999898 -0.297 -0.147 0.907 -13.603 16.29 -3.015
2.3533206669999913 -0.319 -0.154 0.916 -15.809 19.328 -2.634
2.3653058329999936 -0.354 -0.126 0.941 -18.031 14.405 -1.954
2.3723552919999946 -0.355 -0.11 0.962 -19.901 5.153 -1.45
2.3844957499999992 -0.357 -0.104 0.962 -21.641 -2.351 -2.427
2.39619562499999 -0.335 -0.114 0.966 -23.893 -8.695 -2.786
2.4033412080000005 -0.292 -0.12 0.952 -26.504 -12.183 -1.893
2.415135332999995 -0.265 -0.147 0.943 -27.595 -9.916 -1.611
2.4221813329999975 -0.26 -0.158 0.953 -28.557 -2.901 -2.473
2.4341920419999923 -0.265 -0.165 0.978 -28.702 5.145 -4.229
2.445964042 -0.276 -0.169 1.016 -26.985 9.023 -5.641
2.4532400419999902 -0.298 -0.157 1.042 -24.832 8.084 -5.389
2.46520799999999 -0.311 -0.161 1.032 -23.45 5.557 -4.382
2.4723858750000005 -0.315 -0.175 1.021 -22.008 4.74 -3.122
2.4842027499999944 -0.328 -0.166 1.017 -21.046 2.107 -0.992
2.4962434999999914 -0.306 -0.174 1.014 -21.496 -2.824 1.55
2.5032648329999887 -0.279 -0.179 1.011 -21.008 -2.855 2.519
