Time AX AY AZ GX GY GZ
0.01996104200000559 0.048 0.028 1.007 -0.176 1.183 0.412
0.032334542000000965 0.055 0.043 0.986 -1.611 1.519 0.435
0.039677834000002576 0.062 0.05 0.973 -2.115 0.527 -0.183
0.0520233340000118 0.059 0.064 0.958 -2.939 -0.076 -0.252
0.05911725000001411 0.064 0.062 0.951 -3.038 -0.473 -0.389
0.07119866700000443 0.057 0.049 0.961 -2.511 -0.542 -0.099
0.07859195900002192 0.049 0.036 0.979 -2.305 0.374 -0.412
0.0910288340000136 0.032 0.043 0.982 -2.527 0.748 0.443
0.09832350000002066 0.038 0.034 0.986 -2.069 1.969 0.718
0.11056970900000351 0.051 0.04 0.992 -1.038 3.42 1.565
0.11816158400000631 0.064 0.045 1.008 0.695 4.244 1.511
0.1305724590000068 0.068 0.039 1.017 1.122 3.626 1.626
0.1379701250000096 0.071 0.028 1.013 -0.008 2.603 1.321
0.1501242090000119 0.066 0.018 1.032 -1.29 0.847 0.924
0.16237550000002443 0.06 0.016 1.021 -2.389 -0.55 0.695
0.16963254200001643 0.049 0.013 1.007 -2.908 -0.473 0.756
0.18192129200002682 0.054 0.02 0.99 -2.023 -0.046 1.023
0.18942037500002584 0.055 0.004 0.98 0.221 1.748 1.519
0.20168233400002578 0.061 -0.012 0.973 1.359 4.328 1.137
0.209215209000007 0.065 -0.014 0.996 1.611 5.611 0.252
0.22119454200000632 0.074 -0.01 1.006 -0.473 4.992 0.267
0.22847033400000782 0.066 0.015 1.012 -7.863 4.74 -1.405
0.24069487500000264 0.068 0.031 0.993 -2.015 2.275 -2.557
0.24844625000000065 0.064 0.044 0.981 -2.214 0.328 -3.282
0.26032462500000975 0.058 0.056 0.958 -2.328 -0.313 -3.412
0.27237041700001896 0.064 0.052 0.946 -2.344 -0.466 -3.366
0.2799462920000053 0.079 0.058 0.945 -3.275 1.328 -3.191
0.291915959000022 0.067 0.057 0.957 -1.45 1.985 -2.038
0.29942104200000585 0.06 0.063 0.965 -1.87 3.58 -0.305
0.3117167500000164 0.052 0.054 0.988 -1.282 5.023 1.168
0.31896458400001393 0.058 0.059 0.988 -1.878 6.084 2.031
0.33124037500002146 0.053 0.043 0.972 -1.0 6.214 3.069
0.33882425000001604 0.075 0.064 0.98 -5.626 3.649 2.847
0.351016584000007 0.057 0.06 0.943 -5.298 1.427 2.092
0.3585372090000192 0.051 0.044 0.946 -7.244 0.931 1.656
0.37056695900000136 0.04 0.037 0.946 -5.099 -0.519 1.595
0.37815537500000573 0.045 0.04 0.968 -4.863 -0.817 1.015
0.39035662500000967 0.047 0.03 0.993 -3.901 0.191 0.878
0.396250125000023 0.052 0.028 1.011 -2.939 1.183 0.771
0.409871709000015 0.063 0.019 1.034 -2.252 2.137 1.176
0.4221241250000105 0.072 0.009 1.022 -2.267 1.908 1.55
0.42967154200002255 0.057 -0.005 1.002 -3.198 0.504 2.061
0.44169133400001215 0.054 -0.009 0.992 -4.313 -0.115 1.55
0.44900404200001276 0.054 -0.0 0.976 -4.786 0.336 1.008
0.46124141700002497 0.059 0.006 0.98 -2.84 -1.282 0.916
0.46852633400001764 0.061 0.009 0.978 -2.71 -2.573 0.656
0.48082320900002173 0.064 0.01 0.981 -2.229 -2.634 0.305
0.48817016700002114 0.056 0.016 0.969 -1.237 -1.634 -0.183
0.5001021250000122 0.055 0.005 0.965 -0.763 -0.519 -0.878
0.5123899590000178 0.047 -0.004 0.956 -2.282 0.374 -0.985
0.519658459000027 0.049 0.002 0.932 -3.985 0.252 -0.802
0.5316744590000155 0.052 0.007 0.911 -5.008 -0.359 -0.893
0.5389395420000085 0.047 0.01 0.892 -6.267 -0.786 -0.885
0.5512483340000074 0.05 0.015 0.882 -4.893 -0.901 -0.947
0.5585240000000056 0.048 0.021 0.875 -4.031 -0.45 -0.847
0.5705593340000235 0.052 0.011 0.854 -3.229 0.405 -0.611
0.5781257090000054 0.039 0.002 0.84 -1.634 1.168 -1.13
0.5901176670000154 0.046 0.0 0.837 -3.557 0.87 -1.695
0.6024582920000228 0.035 0.002 0.829 -5.756 0.336 -2.817
0.609653709000014 0.038 -0.002 0.804 -7.038 -0.084 -1.947
0.6218085840000072 0.039 -0.003 0.796 -8.351 -0.977 -1.809
0.6288435840000091 0.033 -0.001 0.782 -10.534 -3.176 -1.198
0.6408234590000177 0.019 -0.017 0.777 -11.153 -7.221 1.031
0.6478632920000109 0.031 -0.05 0.768 -13.786 -10.649 1.015
0.6598720000000071 0.041 -0.056 0.747 -19.008 -15.206 1.137
0.6719986250000147 0.003 -0.049 0.704 -23.206 -19.985 1.55
0.6790079590000175 0.023 -0.048 0.687 -23.656 -20.405 3.305
0.691042834000001 0.023 -0.033 0.661 -22.267 -20.489 4.328
0.6981322090000219 0.03 -0.009 0.648 -24.069 -20.542 6.832
0.71008954200002 0.013 0.008 0.607 -21.397 -20.405 7.954
0.7222186250000107 0.026 0.008 0.577 -9.26 -16.832 8.977
0.729285625000017 -0.003 0.026 0.591 -1.489 -12.908 11.779
0.7414781250000146 -0.006 -0.019 0.607 3.863 -7.695 13.45
0.7486157500000274 -0.021 -0.031 0.678 3.031 -3.527 12.794
0.7605816670000252 -0.029 -0.021 0.741 -1.863 -2.725 11.595
0.7664400420000277 -0.018 0.01 0.752 -11.13 -0.183 12.038
0.7799226670000223 0.007 0.026 0.752 -12.481 5.573 11.779
0.7919036250000033 0.055 0.022 0.725 -14.023 9.321 8.847
0.7994212090000019 0.137 0.016 0.739 -6.931 9.45 6.038
0.8114642500000002 0.172 -0.013 0.745 -9.878 10.779 4.511
0.8190008340000077 0.183 -0.013 0.735 2.695 13.473 1.183
0.8310210840000138 0.191 -0.034 0.714 5.42 16.092 5.458
0.8380552090000037 0.165 -0.039 0.745 16.504 22.855 5.71
0.8504380000000253 0.107 -0.044 0.849 22.687 21.366 9.947
0.8573653750000005 0.109 -0.039 0.89 16.137 13.618 9.992
0.8698332500000276 0.072 0.002 0.916 -5.824 1.481 7.84
0.8820559170000024 0.065 0.031 0.871 -26.206 -9.344 7.992
0.8891943750000166 0.063 0.008 0.798 -32.046 -13.908 8.931
0.9011086670000168 0.069 -0.036 0.741 -26.893 -10.42 8.527
0.9080827920000161 0.06 -0.047 0.738 -15.87 -1.771 7.359
0.9206174590000273 0.066 -0.038 0.804 -4.328 6.725 6.962
0.9276485840000248 0.084 -0.029 0.891 5.229 9.023 9.779
0.9401429170000029 0.102 -0.023 0.932 14.313 3.649 11.947
0.9523832920000075 0.11 -0.035 0.924 21.481 -6.061 10.275
0.9594138340000029 0.126 -0.079 0.881 8.573 -25.687 7.466
0.9714465840000059 0.132 -0.098 0.772 -19.634 -53.702 8.84
0.9784620000000075 0.123 -0.138 0.614 -45.023 -61.397 7.511
0.9903375840000024 0.126 -0.121 0.597 -53.733 -49.336 3.878
0.9973554590000049 0.078 -0.096 0.703 -45.702 -31.695 2.351
1.0092867500000011 0.097 -0.067 0.839 -32.145 -12.214 1.397
1.021526625000007 0.105 -0.044 0.946 -20.916 -0.443 1.45
1.028891542000025 0.091 -0.038 0.981 -8.756 4.511 4.221
1.0411188750000235 0.099 -0.032 0.955 -1.626 4.42 7.008
1.048341917000016 0.107 -0.099 0.896 0.84 4.534 10.496
1.0605907500000171 0.089 -0.139 0.905 -2.496 7.206 14.092
1.0676164170000106 0.141 -0.181 0.942 -7.634 12.015 17.573
1.0796160000000157 0.096 -0.203 1.001 -13.008 18.588 15.618
1.0918782920000183 0.098 -0.178 1.136 -18.26 25.282 16.252
1.0986326250000218 0.08 -0.145 1.223 -16.603 28.092 13.069
1.1108699590000128 0.074 -0.103 1.255 -13.725 22.305 10.015
1.1178682090000223 0.09 -0.054 1.252 -12.489 14.053 9.267
1.1301165840000067 0.105 -0.06 1.245 -10.26 6.351 5.977
1.1358130840000058 0.079 -0.014 1.206 -7.656 0.107 5.099
1.149651834000025 0.073 -0.047 1.183 -5.389 0.053 7.893
1.1618685840000182 0.048 -0.07 1.131 -6.55 -1.0 4.634
1.1690110000000118 0.045 -0.086 1.108 -10.885 3.023 0.786
1.1814462090000006 0.055 -0.064 1.141 -17.649 7.443 0.924
1.1882525840000255 0.055 -0.039 1.204 -20.206 12.229 2.13
1.200464917000005 0.068 -0.02 1.275 -15.664 14.168 1.595
1.207584250000025 0.071 0.014 1.289 -11.595 13.0 3.29
1.2198963340000262 0.068 0.008 1.269 -7.588 11.351 7.344
1.2321557920000146 0.072 -0.037 1.228 -2.107 10.664 12.298
1.2391245420000132 0.066 -0.058 1.192 4.168 14.931 16.168
1.2513722090000101 0.101 -0.126 1.188 8.763 25.015 18.847
1.2583946670000046 0.095 -0.132 1.245 14.885 34.244 19.443
1.270655167000001 0.033 -0.191 1.349 15.397 35.481 22.763
1.2777097090000211 0.074 -0.104 1.52 7.252 30.496 23.29
1.2900077920000115 0.064 -0.13 1.614 -14.55 19.015 21.672
1.3020994170000222 0.116 -0.124 1.766 -29.87 3.153 17.595
1.3089935840000066 0.097 -0.088 1.825 -32.58 -17.252 18.191
1.3210138750000056 0.087 -0.086 1.84 -21.046 -20.008 15.924
1.3281107090000148 0.102 -0.076 1.861 -18.435 -32.55 23.466
1.339901334000018 0.091 -0.076 1.728 -20.176 -44.702 25.122
1.351940834000004 0.058 -0.077 1.58 -11.763 -44.809 16.29
1.3589882920000207 0.107 -0.093 1.442 -10.374 -40.947 14.298
1.370781959000027 0.106 -0.113 1.309 -4.802 -34.473 11.794
1.3781226250000032 0.107 -0.116 1.201 3.954 -27.359 7.939
1.3903704590000245 0.123 -0.108 1.12 6.351 -23.45 7.267
1.402365584000023 0.135 -0.108 1.036 3.664 -22.214 8.405
1.4096718340000223 0.135 -0.089 1.0 0.061 -27.145 10.099
1.421448417000022 0.158 -0.102 0.975 -3.397 -29.519 11.969
1.4287960000000055 0.157 -0.097 0.942 -5.901 -27.084 12.832
1.4404684590000159 0.155 -0.114 0.919 -5.092 -24.687 12.412
1.4477702920000013 0.151 -0.091 0.923 -4.16 -20.206 11.344
1.4597989170000005 0.136 -0.101 0.936 0.214 -10.557 8.397
1.472143917000011 0.123 -0.115 0.917 5.321 -1.466 6.046
1.4794030840000119 0.132 -0.114 0.938 4.641 3.992 5.679
1.4916962920000003 0.133 -0.114 0.95 4.115 8.702 4.611
1.4992332090000104 0.132 -0.116 0.952 3.053 11.519 3.672
1.5112308340000027 0.141 -0.133 0.963 1.664 10.069 3.489
1.5187455420000049 0.142 -0.124 0.974 -1.718 6.557 1.87
1.530787250000003 0.144 -0.128 0.974 -2.977 3.023 1.031
1.5380994590000228 0.153 -0.134 0.966 -2.168 -0.176 0.763
1.550310459000002 0.147 -0.146 1.006 1.191 -2.916 0.908
1.5561688750000258 0.135 -0.148 1.017 1.725 -3.069 1.191
1.569873584000021 0.132 -0.131 1.005 2.626 -1.237 0.45
1.5821762500000034 0.122 -0.123 1.022 3.573 2.542 -0.191
1.5894270840000218 0.122 -0.114 1.02 3.725 5.145 -1.008
1.6016917500000147 0.127 -0.116 1.009 4.122 6.382 -2.206
1.6089967920000277 0.124 -0.112 0.991 4.466 8.153 -3.473
1.6212912090000202 0.119 -0.129 0.984 4.84 9.076 -4.214
1.6285720000000197 0.106 -0.13 0.967 5.817 8.573 -5.145
1.6408161250000148 0.113 -0.129 0.965 5.191 7.573 -4.542
1.6481095420000145 0.102 -0.116 0.971 4.29 5.443 -4.13
1.6603415840000082 0.108 -0.115 0.972 4.198 3.137 -3.313
1.6723513340000125 0.105 -0.109 0.96 3.74 -0.321 -2.473
1.6796666670000207 0.111 -0.106 0.956 1.725 -3.542 -2.229
1.6916831670000079 0.11 -0.117 0.965 2.046 -4.718 -2.046
1.6989364590000093 0.112 -0.105 0.952 1.885 -4.008 -2.534
1.7112512500000037 0.11 -0.094 0.959 2.443 -1.573 -2.725
1.7185032500000261 0.104 -0.088 0.978 2.901 0.321 -2.214
1.7308015000000125 0.099 -0.083 0.966 2.328 2.473 -2.214
1.7377782500000194 0.09 -0.092 0.972 4.252 4.0 -1.198
1.750242625000027 0.101 -0.086 0.984 4.954 3.718 -0.87
1.7624588340000003 0.11 -0.091 0.983 5.29 2.611 -0.267
1.769721000000004 0.111 -0.1 0.992 3.931 2.0 -2.153
1.7818918750000137 0.114 -0.1 1.002 1.901 -1.099 -1.328
1.7892119590000277 0.135 -0.108 0.988 -0.29 -2.893 -1.718
1.8014413340000033 0.135 -0.115 0.985 -0.389 -3.031 -1.534
1.808497000000017 0.127 -0.107 0.998 -0.214 -2.321 -1.931
1.8206534590000274 0.124 -0.111 0.985 0.87 -0.145 -2.099
1.827866250000028 0.118 -0.093 1.006 0.893 1.443 -2.359
1.840203042000013 0.103 -0.092 0.998 1.008 2.672 -2.885
1.8521615420000046 0.106 -0.088 1.007 2.634 3.466 -3.366
1.8596815840000147 0.1 -0.083 0.99 2.542 4.672 -3.321
1.8716759170000046 0.092 -0.082 0.981 3.359 4.611 -3.511
1.8792390000000125 0.093 -0.091 0.962 4.534 3.443 -3.282
1.8912565000000257 0.092 -0.1 0.944 2.595 2.595 -3.153
1.8987456250000037 0.1 -0.107 0.926 1.092 1.702 -3.0
1.910791875000001 0.107 -0.107 0.946 -0.267 1.13 -2.87
1.9180974590000233 0.105 -0.102 0.963 -0.847 1.069 -2.618
1.9300929590000067 0.105 -0.102 0.96 -0.969 0.695 -2.206
1.9423530000000255 0.097 -0.099 0.963 -0.42 2.382 -1.87
1.949660792000003 0.098 -0.087 0.976 -0.809 4.084 -1.573
1.961695959000025 0.101 -0.079 0.98 -1.244 3.962 -1.58
1.9689532500000269 0.089 -0.082 1.004 0.076 3.55 -1.641
1.9812072920000219 0.082 -0.074 1.017 0.153 3.321 -1.046
1.9885175000000004 0.085 -0.078 1.024 0.603 2.534 -1.015
2.0007860420000156 0.085 -0.087 1.02 1.237 2.557 -1.244
