Time AX AY AZ GX GY GZ
0.013159333000000828 0.003 -0.067 0.987 -6.695 0.595 -0.122
0.020316708000000183 0.0 -0.079 0.988 -6.122 2.267 1.771
0.03247616600000036 -0.072 -0.095 0.971 -11.252 2.145 9.153
0.04486241600000085 0.008 -0.051 0.991 -12.321 7.374 6.084
0.052090625000000834 -0.013 -0.083 0.991 -14.924 1.008 9.824
0.06415537500000035 -0.005 -0.087 0.989 -33.275 15.244 7.496
0.07159429100000025 0.011 -0.077 0.99 -6.84 9.588 4.26
0.08384091599999977 -0.009 -0.07 0.993 -2.618 4.779 2.153
0.09133066600000106 0.012 -0.08 0.994 -5.023 3.244 0.466
0.10325420800000096 0.003 -0.077 0.99 -8.221 2.565 -0.16
0.11091829100000083 0.012 -0.072 0.978 -8.206 0.069 -0.565
0.1227727500000011 -0.006 -0.067 0.977 1.0 -1.221 -0.267
0.13514175000000073 -0.005 -0.074 0.991 2.824 1.481 -0.634
0.14244241599999974 -0.008 -0.086 0.98 4.809 1.397 -0.985
0.1546598750000001 -0.013 -0.087 0.993 4.084 2.229 -1.153
0.1619382500000004 -0.006 -0.084 0.989 2.924 1.847 -2.061
0.17432329100000032 -0.007 -0.081 0.982 2.718 1.168 -2.328
0.18169916599999958 -0.008 -0.079 0.986 0.87 1.221 -2.038
0.19372150000000055 -0.011 -0.075 0.982 0.153 1.183 -1.626
0.20105366599999996 -0.013 -0.085 0.97 0.305 0.664 -1.321
0.21312045800000057 -0.013 -0.081 0.966 1.313 -0.275 -0.878
0.2190832080000007 -0.017 -0.082 0.962 3.405 -1.137 -0.733
0.2326690410000012 -0.01 -0.085 0.966 3.779 -1.977 -0.962
0.24462541599999987 0.0 -0.075 0.971 2.588 -3.015 -1.58
0.2521967499999995 0.001 -0.079 0.957 1.794 -4.008 -2.557
0.2643057080000002 0.004 -0.083 0.953 1.412 -4.74 -3.588
0.27178195800000005 0.003 -0.083 0.923 0.427 -5.748 -3.649
0.28378095800000125 -0.004 -0.103 0.911 1.71 -6.42 -3.557
0.2910881249999999 -0.004 -0.116 0.9 0.55 -5.985 -3.885
0.30307479100000023 -0.012 -0.106 0.88 1.168 -6.16 -3.863
0.3091465410000005 -0.024 -0.112 0.877 1.351 -5.641 -3.29
0.3226189579999996 -0.012 -0.1 0.853 1.427 -4.954 -2.863
0.33470699999999987 -0.008 -0.087 0.843 3.046 -3.313 -1.924
0.34193658300000074 -0.001 -0.086 0.802 5.198 -2.092 -1.252
0.35415666599999973 0.011 -0.095 0.795 8.053 0.443 -0.939
0.36172591600000104 0.024 -0.106 0.75 16.008 2.275 2.092
0.3738289160000008 0.031 -0.097 0.732 26.092 -1.55 8.16
0.38102058299999975 -0.001 -0.093 0.717 30.198 -0.267 2.321
0.39324250000000127 -0.004 -0.095 0.703 27.031 -4.389 0.595
0.3992122079999998 -0.018 -0.086 0.663 18.901 -6.481 -4.176
0.4123713750000011 -0.009 -0.099 0.636 11.916 -13.489 -3.206
0.42441495799999984 -0.01 -0.075 0.649 7.321 -16.427 1.084
0.43177083299999985 -0.005 -0.041 0.68 12.977 -14.008 4.672
0.4437390410000006 0.03 -0.013 0.617 18.794 -10.183 9.84
0.45108654100000045 0.033 -0.001 0.602 29.71 -11.176 16.885
0.4630357079999996 -0.003 0.017 0.596 39.031 -2.336 16.237
0.4705655410000009 -0.028 0.032 0.591 39.809 4.313 14.42
0.4825460830000008 -0.016 0.04 0.592 48.58 11.076 14.008
0.494650708 -0.01 0.023 0.595 50.87 14.107 16.863
0.5019067499999998 -0.007 -0.012 0.627 45.649 15.084 19.13
0.5143198330000001 0.004 0.001 0.657 44.321 14.847 22.618
0.521664458 0.02 0.018 0.701 43.908 9.687 31.397
0.533819041000001 0.025 0.008 0.708 36.366 4.305 22.649
0.5410250000000012 0.04 -0.001 0.727 31.893 -5.611 17.931
0.5532845000000002 0.027 -0.011 0.691 27.58 -9.847 12.847
0.5592053750000012 0.029 -0.012 0.677 12.26 -12.519 20.038
0.5723742500000011 -0.014 -0.02 0.704 4.344 -16.496 21.275
0.5846137910000007 -0.022 0.016 0.749 0.351 -21.092 18.885
0.5916239159999996 -0.005 0.073 0.811 -6.878 -25.489 15.832
0.6036786250000006 0.016 0.079 0.794 -17.214 -32.214 14.87
0.611009000000001 0.04 0.065 0.774 -21.58 -34.198 17.824
0.623014791000001 0.069 0.028 0.779 -15.847 -28.756 22.908
0.6351533749999998 0.097 -0.042 0.781 -5.695 -20.336 28.046
0.6425154160000002 0.085 -0.052 0.837 3.336 -11.992 34.275
0.6546927910000004 0.078 -0.064 0.902 4.954 -5.802 35.595
0.6619642500000005 0.083 -0.083 0.92 -9.13 -8.344 30.351
0.6737748330000013 0.08 -0.062 0.977 -27.412 -11.847 25.389
0.6811225410000006 0.065 -0.055 1.026 -43.992 -16.015 24.557
0.6928750830000006 0.102 -0.03 1.081 -57.084 -12.58 24.977
0.7048803750000001 0.051 -0.081 1.076 -50.084 -17.916 27.046
0.7119225 0.06 -0.133 1.054 -35.137 -15.466 27.13
0.7240137080000011 0.091 -0.096 1.016 -27.695 -13.824 28.061
0.7313727080000003 0.062 -0.077 0.994 -25.099 -8.397 31.015
0.7433411660000004 0.139 -0.033 0.939 -23.878 -3.42 29.313
0.7507895829999995 0.111 -0.032 0.943 -10.107 3.771 28.939
0.7625274160000011 0.088 -0.055 1.003 -5.504 13.931 30.534
0.774717291 0.048 -0.089 1.117 -17.412 20.359 31.252
0.7820308330000003 0.059 -0.102 1.221 -37.107 18.244 27.176
0.7945940409999999 0.086 -0.093 1.241 -61.687 5.519 21.069
0.8013102500000002 0.114 -0.135 1.174 -74.588 -2.786 20.939
0.8134095410000004 0.099 -0.104 1.11 -79.435 -0.656 18.16
0.820683958 0.088 -0.079 1.045 -75.412 5.618 20.557
0.8326788750000009 0.089 -0.086 1.033 -59.489 17.573 26.405
0.8447312910000004 0.085 -0.135 1.102 -34.626 30.443 30.244
0.8517896250000003 0.083 -0.189 1.194 -28.504 39.16 30.336
0.8637622080000007 0.063 -0.226 1.297 -31.847 35.756 25.481
0.8710264160000012 0.052 -0.221 1.345 -45.107 19.534 20.389
0.8830916250000005 0.037 -0.171 1.342 -64.809 7.145 18.336
0.88912075 0.171 -0.15 1.289 -71.412 2.802 15.389
0.9026967910000003 0.055 -0.122 1.198 -68.618 1.412 14.672
0.914771666 0.076 -0.116 1.098 -54.061 4.718 20.527
0.9220214999999996 0.059 -0.129 1.036 -32.687 20.053 24.916
0.9340181659999995 0.043 -0.149 1.042 -10.366 46.412 30.084
0.941273958 0.079 -0.208 1.139 10.786 66.137 29.023
0.9532900000000009 -0.004 -0.195 1.258 14.008 66.992 23.115
0.9592097500000012 -0.031 -0.175 1.356 10.962 54.847 17.695
0.9723842910000009 -0.052 -0.155 1.412 -15.282 30.557 3.214
0.9844691250000004 -0.061 -0.17 1.47 -45.427 20.55 -6.038
0.9915761249999999 -0.066 -0.19 1.395 -60.405 0.954 -6.87
1.003724333000001 -0.064 -0.206 1.326 -61.84 -4.87 1.191
1.010746416 -0.057 -0.21 1.241 -55.885 9.214 6.069
1.0229036660000013 -0.046 -0.189 1.167 -49.366 24.466 9.992
1.034942375 -0.03 -0.205 1.18 -35.771 35.763 15.313
1.041885208 -0.025 -0.213 1.205 -15.542 37.947 16.176
1.054159125 -0.059 -0.208 1.182 -7.634 25.168 14.534
1.061162791000001 -0.073 -0.221 1.202 -9.008 17.58 5.435
1.0732920000000004 -0.068 -0.216 1.23 -11.099 5.313 3.107
1.0803405000000001 -0.083 -0.24 1.219 -13.069 -7.542 2.244
1.0923665000000007 -0.084 -0.227 1.182 -11.435 -18.748 6.099
1.1045066250000009 -0.058 -0.225 1.145 -6.305 -20.603 7.206
1.1115761660000008 -0.058 -0.217 1.117 -4.191 -18.649 8.779
1.1239276250000003 -0.065 -0.238 1.128 -0.885 -12.321 11.412
1.1308514160000005 -0.052 -0.258 1.159 4.924 -3.229 9.641
1.1434067500000005 -0.058 -0.254 1.183 10.092 4.107 8.71
1.1504360410000007 -0.058 -0.235 1.224 8.061 6.557 6.16
1.1629137079999996 -0.059 -0.225 1.211 4.832 5.107 5.053
1.1702102500000002 -0.059 -0.213 1.159 4.962 4.626 4.779
1.1827482079999996 -0.057 -0.215 1.126 5.573 6.893 5.191
1.195162625 -0.051 -0.207 1.076 9.336 11.046 6.298
1.2023958750000006 -0.051 -0.213 1.033 18.046 12.344 5.565
1.2145783750000003 -0.05 -0.209 0.995 21.718 11.313 4.985
1.221551625 -0.061 -0.202 1.02 21.069 8.634 3.756
1.234095666 -0.076 -0.187 1.037 16.458 8.588 2.137
1.2412472080000008 -0.068 -0.199 1.01 16.695 5.13 3.176
1.253468583 -0.077 -0.202 0.998 12.191 6.076 3.427
1.2607102500000007 -0.066 -0.201 0.978 10.145 4.336 4.931
1.2729855000000008 -0.066 -0.2 0.945 10.756 5.229 4.893
1.2804906660000004 -0.069 -0.199 0.937 9.344 5.939 3.313
1.2928255830000008 -0.062 -0.195 0.962 9.336 3.802 2.061
1.3048418330000011 -0.06 -0.186 0.948 11.336 2.603 0.863
1.312054958000001 -0.077 -0.188 0.987 10.061 2.092 -0.046
1.3244359580000005 -0.075 -0.2 0.983 6.672 1.069 -1.305
1.3316678750000008 -0.082 -0.196 0.988 4.664 -0.763 -2.015
1.343667666 -0.087 -0.197 0.982 5.481 -1.16 -1.55
1.3509566250000002 -0.083 -0.208 0.972 8.641 -1.092 -0.824
1.3632385410000012 -0.077 -0.196 0.972 10.084 0.206 -0.229
1.3705138330000004 -0.076 -0.196 0.973 11.824 0.473 -0.344
1.382538041 -0.066 -0.194 0.95 7.992 1.168 -1.679
1.3948261249999998 -0.067 -0.193 0.963 3.16 -0.473 -0.962
1.4021153330000011 -0.058 -0.188 0.967 0.893 -1.366 -1.618
1.4141431250000007 -0.059 -0.196 0.973 0.481 -3.191 -1.786
1.4214114999999996 -0.067 -0.197 0.953 -2.397 -3.779 -2.023
1.4336036659999998 -0.068 -0.195 0.954 -1.046 -3.634 -2.26
1.4407476250000002 -0.066 -0.192 0.962 1.809 -2.298 -2.29
1.452776375000001 -0.075 -0.193 0.978 3.901 -1.427 -2.206
1.46504775 -0.068 -0.174 0.965 5.107 0.023 -1.206
1.4723105000000007 -0.066 -0.183 0.978 3.191 0.214 -1.863
1.4843256250000003 -0.061 -0.174 0.962 1.595 -3.145 -1.069
1.4916462080000006 -0.055 -0.176 0.935 -0.298 -3.824 -0.664
1.5037061660000006 -0.052 -0.188 0.942 -0.015 -2.977 -0.992
1.5110887910000006 -0.051 -0.184 0.935 -1.023 -1.519 -1.603
1.523034666000001 -0.048 -0.184 0.971 -2.725 -0.443 -3.519
1.5351482080000007 -0.041 -0.192 0.973 -3.382 -0.863 -4.389
1.542137125 -0.06 -0.192 0.972 -4.473 -0.649 -4.969
1.5541163329999996 -0.056 -0.186 1.0 -5.275 -0.336 -5.015
1.5614026250000013 -0.066 -0.196 0.981 0.71 -2.191 -4.351
1.573441583000001 -0.062 -0.188 0.981 -2.16 -0.267 -3.824
1.5807108330000013 -0.056 -0.183 0.969 -1.496 -1.863 -3.252
1.592744208000001 -0.05 -0.182 0.967 -2.145 -3.13 -4.244
1.6048293749999996 -0.058 -0.187 0.965 -3.611 -2.977 -5.191
1.612136875000001 -0.059 -0.19 0.982 -1.58 -2.183 -6.015
1.6243304160000012 -0.051 -0.182 0.976 0.511 0.008 -5.099
1.631659625000001 -0.051 -0.19 0.976 1.603 0.099 -5.298
1.643609166000001 -0.046 -0.196 0.967 1.786 0.0 -5.87
1.6508103750000007 -0.049 -0.198 0.955 2.58 -0.71 -6.069
1.6632750830000003 -0.043 -0.193 0.974 0.061 -2.069 -7.771
1.6691813750000009 -0.044 -0.187 0.985 -1.84 -2.885 -7.359
1.6825799999999997 -0.066 -0.189 0.984 2.511 -2.992 -3.817
1.6945982080000004 -0.047 -0.186 0.983 -3.076 -2.527 -3.26
1.701753 -0.047 -0.189 0.967 -2.962 -3.885 -3.031
1.7138614580000002 -0.047 -0.188 0.979 -3.924 -3.359 -3.534
1.7210962500000004 -0.04 -0.192 0.972 -2.679 -4.229 -2.809
1.7333995830000006 -0.041 -0.182 0.984 -1.634 -4.313 -3.389
1.745233583000001 -0.061 -0.18 0.972 -2.763 -3.023 -3.351
1.7523761660000012 -0.04 -0.178 0.976 -2.427 -2.313 -2.573
1.7643825 -0.045 -0.182 0.969 -0.58 -2.511 -2.504
1.7714242910000007 -0.048 -0.184 0.972 -0.565 -2.824 -2.351
1.783426458000001 -0.047 -0.192 0.969 -2.191 -1.878 -2.786
1.7907111660000012 -0.046 -0.188 0.976 -1.099 -2.229 -2.855
1.8027908329999995 -0.033 -0.212 0.986 0.824 -1.015 -4.366
1.8148035 -0.028 -0.194 0.949 -1.267 -1.221 -3.809
1.8220572910000001 -0.048 -0.18 0.96 -1.229 -0.427 -3.641
1.8345300000000009 -0.048 -0.185 0.956 0.954 0.221 -2.779
1.8417465830000008 -0.05 -0.171 0.968 2.992 1.221 -2.336
1.853961708 -0.039 -0.181 0.978 2.275 0.664 -1.382
1.8609696660000008 -0.039 -0.184 0.979 -1.519 -1.053 -1.16
1.8729419160000003 -0.042 -0.19 0.977 -3.214 -2.015 -0.634
1.8850274159999998 -0.041 -0.194 0.971 -3.145 -1.298 -0.817
1.8923055830000006 -0.049 -0.192 0.985 -3.282 -1.412 -0.885
1.9043447909999998 -0.036 -0.191 0.965 -3.061 -2.031 -1.305
1.9116324159999998 -0.04 -0.191 0.961 -1.58 -1.725 -1.481
1.9237013330000003 -0.051 -0.191 0.966 -1.267 0.176 -1.328
1.930983750000001 -0.044 -0.182 0.965 -1.985 0.603 -1.038
1.9430925410000004 -0.052 -0.19 0.973 -2.183 0.756 -0.908
1.949150458 -0.041 -0.191 0.981 -2.16 0.847 -0.618
1.9625478330000004 -0.047 -0.184 0.967 -2.992 0.092 -0.626
1.9747072079999999 -0.05 -0.197 0.979 -4.435 -0.573 -0.107
1.9817562080000002 -0.069 -0.183 0.985 -4.046 -2.603 -0.214
1.9936653750000009 -0.047 -0.197 0.952 -3.099 -4.244 -0.405
2.0010372499999995 -0.048 -0.196 0.959 -3.55 -4.053 -0.519
