Time AX AY AZ GX GY GZ
0.014649540999997157 0.027 0.232 0.938 4.489 -6.847 -3.962
0.027029374999997913 0.008 0.247 0.922 4.221 -2.519 -1.473
0.034002250000000345 -0.001 0.235 0.938 2.954 0.099 0.198
0.0464720000000014 0.0 0.226 0.963 2.351 -1.0 0.55
0.05887466600000124 0.011 0.21 0.982 2.992 -2.771 0.573
0.06621720799999764 0.042 0.208 0.979 4.389 -4.573 -0.046
0.07841895800000032 0.068 0.214 0.969 6.42 -2.603 -1.137
0.08598258299999628 0.046 0.228 0.943 7.473 2.053 0.29
0.09851954100000171 0.017 0.251 0.938 7.695 5.847 2.863
0.10551237499999644 -0.024 0.232 0.95 8.023 8.366 4.748
0.11797279099999969 -0.046 0.21 0.972 9.099 6.435 4.725
0.12499774999999858 -0.05 0.216 1.014 11.878 -0.344 4.427
0.13731758299999797 -0.017 0.252 1.02 16.389 -10.0 5.321
0.14409916599999661 0.034 0.253 0.971 17.962 -13.412 7.13
0.15654295800000284 0.057 0.243 0.925 16.023 -7.496 7.771
0.16272608300000257 0.067 0.253 0.93 11.718 -2.489 6.992
0.1763904580000002 0.048 0.252 0.935 6.924 -0.718 4.687
0.18884991600000234 0.012 0.235 0.937 3.229 0.313 2.29
0.196161625000002 -0.031 0.219 0.964 1.084 -1.282 0.176
0.20842904100000226 -0.033 0.236 0.987 1.931 -6.855 0.527
0.21576850000000292 -0.002 0.248 0.978 4.55 -13.481 2.229
0.22776558300000005 0.051 0.273 0.947 6.611 -15.069 4.214
0.23527195799999845 0.097 0.269 0.909 6.427 -7.137 5.351
0.24755633299999857 0.076 0.255 0.922 3.557 4.947 6.641
0.25504433300000073 0.044 0.238 0.955 1.229 10.672 9.122
0.26741175000000084 0.025 0.22 1.007 1.107 8.023 6.168
0.2747655410000007 -0.002 0.222 1.03 3.649 -0.618 3.176
0.28705850000000055 0.022 0.226 1.041 7.679 -7.763 1.74
0.2943888329999993 0.059 0.242 1.013 10.664 -10.412 1.969
0.3063395 0.073 0.251 0.956 11.153 -7.107 5.344
0.3186184159999996 0.075 0.243 0.933 9.267 -0.122 7.618
0.3261692499999995 0.037 0.236 0.943 8.336 5.29 8.496
0.3386319159999971 0.013 0.236 0.964 8.954 5.481 7.573
0.34595466599999725 0.01 0.26 0.973 10.443 -0.13 7.328
0.35822095799999687 0.036 0.271 0.947 11.542 -4.863 8.534
0.3655472909999986 0.075 0.263 0.93 12.198 -3.443 8.206
0.3777630000000016 0.091 0.272 0.897 10.145 1.221 7.298
0.38526037500000143 0.093 0.274 0.903 8.053 5.748 6.58
0.39761162499999614 0.078 0.271 0.917 7.16 6.611 5.939
0.40502891599999913 0.083 0.265 0.92 6.588 5.534 5.198
0.41778533299999765 0.083 0.26 0.899 5.496 4.153 4.153
0.42499729099999684 0.05 0.268 0.887 2.863 4.344 3.824
0.43743362499999705 0.023 0.285 0.896 0.855 5.115 3.939
0.44480216600000233 0.016 0.292 0.903 0.496 3.809 3.008
0.45724249999999955 0.054 0.284 0.929 1.695 0.153 1.924
0.46478712500000086 0.072 0.261 0.907 3.786 -0.718 1.824
0.4768209579999976 0.087 0.253 0.89 4.679 1.71 1.824
0.4839519579999987 0.076 0.264 0.886 4.733 5.244 2.214
0.4966291659999982 0.049 0.276 0.876 4.313 8.328 3.45
0.5045196250000004 0.013 0.266 0.88 4.58 9.916 5.298
0.5167592499999998 0.01 0.251 0.889 5.229 6.802 6.374
0.5289176659999981 0.014 0.264 0.894 6.649 1.527 8.443
0.5364674579999971 0.042 0.274 0.865 7.985 0.153 10.168
0.5487342079999991 0.077 0.281 0.851 8.198 3.748 11.122
0.5562591249999969 0.089 0.283 0.845 8.618 9.595 11.794
0.5683596659999992 0.064 0.276 0.854 7.374 13.198 12.916
0.5759050409999986 0.046 0.266 0.848 5.557 14.626 10.939
0.5880511249999998 0.027 0.246 0.833 4.588 12.977 9.901
0.5954583329999963 0.028 0.227 0.835 4.992 9.443 8.649
0.607771833000001 0.035 0.224 0.82 5.481 6.504 9.084
0.615284625000001 0.05 0.262 0.81 4.695 5.626 11.191
0.6276597909999992 0.063 0.31 0.81 4.313 9.992 12.74
0.6349207080000028 0.089 0.333 0.805 3.244 14.863 12.489
0.6470843330000022 0.081 0.336 0.825 0.542 20.015 11.992
0.6544112079999991 0.05 0.305 0.833 -3.206 26.519 8.092
0.6663985409999995 -0.021 0.27 0.886 -6.336 28.221 6.206
0.6786770410000003 -0.058 0.244 0.911 -9.557 19.733 5.26
0.6859590409999967 -0.074 0.263 0.956 -11.351 2.511 3.458
0.6977454999999964 -0.079 0.305 0.958 -11.557 -13.695 3.336
0.7050279580000023 -0.043 0.34 0.971 -10.359 -23.664 6.061
0.7170568330000009 0.046 0.323 0.951 -8.626 -27.855 8.458
0.7243210409999961 0.11 0.285 0.929 -8.427 -23.198 7.473
0.7363495829999991 0.129 0.289 0.919 -9.573 -14.359 4.748
0.7487412079999984 0.11 0.281 0.929 -11.817 -7.374 5.702
0.7559132080000026 0.092 0.267 0.919 -14.336 -2.45 4.664
0.7679632079999976 0.039 0.263 0.952 -16.42 0.366 3.344
0.775322457999998 0.035 0.24 0.975 -16.565 -0.206 1.611
0.7872716660000023 0.03 0.226 0.997 -14.771 -4.847 -0.656
0.7945775829999988 0.049 0.236 0.981 -12.802 -10.931 -0.863
0.8063770409999975 0.061 0.249 0.954 -12.351 -10.901 -0.542
0.8186195830000003 0.057 0.258 0.936 -12.588 -4.557 1.527
0.8259978749999988 0.062 0.256 0.924 -12.695 2.786 3.924
0.8382522080000001 0.048 0.232 0.945 -12.137 8.42 7.282
0.8454985409999978 0.067 0.214 0.97 -8.389 11.863 9.412
0.8577162079999994 0.077 0.206 0.948 -3.74 15.786 9.038
0.8650033750000006 0.095 0.219 0.946 1.115 19.901 8.504
0.8772914999999983 0.088 0.219 0.912 3.641 24.992 9.015
0.8845823750000008 0.083 0.236 0.885 4.573 31.473 8.389
0.8971739579999962 0.06 0.262 0.869 3.947 34.756 8.321
0.9044142910000019 0.043 0.284 0.844 1.298 33.244 10.366
0.9169375410000029 0.01 0.279 0.872 -2.748 29.824 11.824
0.9286910829999968 0.0 0.246 0.865 -7.008 29.0 9.321
0.9359612499999983 -0.036 0.212 0.911 -8.13 27.328 4.885
0.9482440410000024 -0.068 0.181 0.925 -6.504 21.313 3.641
0.9554629160000019 -0.075 0.143 0.949 -2.718 14.031 4.679
0.9677450000000007 -0.058 0.136 0.922 0.817 7.313 6.595
0.975083749999996 -0.006 0.203 0.877 1.519 -0.511 9.84
0.9873469999999998 0.041 0.3 0.854 0.214 -5.084 11.435
0.9945909999999998 0.075 0.353 0.823 -3.427 0.885 11.84
1.006718124999999 0.078 0.309 0.773 -9.992 17.336 9.221
1.019053624999998 0.042 0.253 0.838 -17.916 30.305 4.718
1.025970749999999 -0.012 0.208 0.915 -22.603 32.748 1.534
1.038210333000002 -0.038 0.18 0.97 -21.969 26.252 0.939
1.0448056250000022 -0.046 0.193 1.002 -19.145 14.237 1.939
1.0572939580000025 -0.034 0.198 1.01 -14.977 6.878 3.336
1.064287499999999 -0.028 0.208 0.999 -12.756 6.229 1.634
1.0765814159999962 -0.032 0.251 0.995 -12.221 5.443 0.366
1.0888750410000014 -0.039 0.283 1.007 -12.16 0.42 2.053
1.0958191249999985 -0.02 0.277 0.987 -13.29 -1.397 3.176
1.1080983749999973 -0.02 0.248 0.976 -14.687 0.58 1.588
1.115116540999999 -0.025 0.212 1.0 -16.237 1.206 1.298
1.1273707499999972 -0.026 0.196 1.031 -17.153 -0.611 2.267
1.1343578749999992 -0.036 0.194 1.057 -17.137 -3.336 4.595
1.146599375000001 -0.023 0.194 1.089 -16.565 -6.237 3.679
1.1588277500000004 -0.022 0.189 1.093 -15.046 -8.206 -0.481
1.1656938750000023 -0.015 0.192 1.07 -12.221 -8.191 -4.023
1.1779749159999966 -0.023 0.198 1.053 -10.504 -6.336 -3.916
1.1847812079999969 -0.022 0.198 1.025 -10.901 -1.42 0.015
1.1971821249999977 -0.015 0.187 1.01 -11.969 5.901 3.916
1.2040245000000027 -0.011 0.191 1.014 -12.771 12.458 5.321
1.2163700409999976 -0.01 0.208 1.038 -12.206 15.359 4.115
1.2284623749999994 -0.016 0.204 1.042 -10.466 13.618 2.321
1.2356778750000004 -0.027 0.209 1.052 -8.298 9.168 -0.443
1.2480831250000008 -0.016 0.202 1.013 -6.71 5.542 -1.031
1.2552981660000029 -0.022 0.208 0.989 -6.641 3.74 -1.214
1.267308082999996 -0.014 0.208 0.97 -9.328 5.053 -1.061
1.2745474159999972 -0.023 0.213 0.957 -13.779 8.305 -2.473
1.2866050829999978 -0.069 0.222 0.99 -18.427 9.779 -3.496
1.2987169159999965 -0.131 0.21 1.018 -21.557 6.924 -1.542
1.3056983749999986 -0.158 0.17 1.042 -21.527 -0.382 1.328
1.3177038749999994 -0.125 0.123 1.053 -17.42 -7.718 3.389
1.325111249999999 -0.07 0.117 1.06 -11.672 -13.878 4.366
1.3370895409999974 -0.018 0.126 1.062 -6.779 -16.71 5.977
1.3444216250000025 0.096 0.134 1.035 -2.527 -12.282 0.87
1.3562361660000022 0.112 0.198 1.001 -1.122 0.198 -2.221
1.368612665999997 0.103 0.231 0.961 -3.802 17.908 -1.031
1.375786749999996 0.07 0.201 0.953 -9.191 32.954 -2.847
1.3879799580000025 0.002 0.2 0.987 -12.664 42.092 -6.397
1.3951082079999964 -0.072 0.166 1.003 -13.015 42.221 -6.168
1.4070657910000008 -0.116 0.132 1.05 -10.786 32.71 -6.496
1.4130069579999969 -0.145 0.134 1.035 -7.565 19.206 -6.351
1.426447416000002 -0.159 0.17 1.026 -3.214 6.618 -2.985
1.4385424580000006 -0.128 0.193 0.994 -0.634 -0.878 1.931
1.445834791000003 -0.07 0.168 0.951 -1.901 -3.275 6.519
1.4577676660000023 -0.04 0.186 0.941 -3.954 -1.221 4.458
1.4652912079999965 -0.06 0.211 0.934 -5.855 5.71 3.328
1.477270707999999 -0.046 0.185 0.933 -7.626 11.344 3.42
1.4846494999999962 -0.047 0.142 0.962 -9.198 13.656 1.092
1.4966307079999979 -0.059 0.125 1.0 -8.908 11.947 -2.489
1.5086218329999994 -0.092 0.152 1.018 -6.985 6.916 -2.595
1.5159137079999994 -0.106 0.166 1.002 -4.702 -0.046 0.389
1.5282048750000001 -0.104 0.144 0.96 -3.374 -5.809 4.809
1.5352035829999977 -0.055 0.159 0.943 -2.634 -11.0 4.107
1.5472699580000011 -0.026 0.193 0.906 -3.237 -10.855 5.084
1.5548483330000025 0.01 0.197 0.859 -6.786 -2.252 6.008
1.566893125 0.022 0.174 0.855 -10.038 13.115 4.595
1.578890125000001 -0.012 0.15 0.895 -12.809 27.947 2.206
1.5859584580000003 -0.07 0.136 0.955 -14.29 31.878 -0.641
1.598053499999999 -0.136 0.136 0.99 -14.115 22.702 -2.29
1.6051371659999987 -0.168 0.144 1.013 -12.832 5.74 -0.901
1.616874082999999 -0.135 0.142 1.007 -12.031 -10.71 1.115
1.6239440410000014 -0.049 0.139 0.978 -10.87 -15.756 1.847
1.6361030409999984 0.022 0.135 0.926 -11.122 -6.969 0.573
1.648332332999999 0.034 0.155 0.921 -12.084 10.153 -2.038
1.6552473329999984 -0.029 0.162 0.938 -14.046 26.962 -4.427
1.6674832080000002 -0.113 0.159 0.994 -15.015 32.069 -5.13
1.6743965829999965 -0.177 0.125 1.026 -13.374 24.977 -3.672
1.686640875000002 -0.193 0.091 1.054 -9.725 11.351 -1.863
1.6988580000000013 -0.222 0.12 1.035 -5.893 -7.366 1.069
1.7059580410000024 -0.141 0.082 1.012 -4.901 -17.794 6.962
1.7180694580000022 -0.096 0.098 0.979 -3.87 -28.664 7.84
1.725220415999999 -0.035 0.126 0.941 -3.061 -28.534 4.053
1.7373173749999964 -0.006 0.146 0.919 -3.0 -18.649 -0.137
1.7442986659999988 -0.012 0.159 0.928 -5.542 -4.733 -1.939
1.7566194579999959 -0.018 0.143 0.95 -8.16 7.519 -3.412
1.768386999999997 -0.03 0.118 0.958 -10.893 15.74 -2.458
1.775703583000002 -0.072 0.121 0.977 -12.473 20.244 -1.229
1.7878892080000028 -0.112 0.122 1.002 -13.466 20.298 1.26
1.7950242499999973 -0.115 0.118 1.025 -14.595 12.656 4.489
1.8071240000000017 -0.094 0.107 1.012 -13.786 3.954 5.29
1.8131256659999977 -0.074 0.104 0.998 -11.023 -0.13 3.954
1.8264976660000016 -0.048 0.085 0.98 -9.908 -0.137 0.252
1.838519790999996 -0.053 0.101 0.98 -10.038 0.679 -2.641
1.845588124999999 -0.067 0.131 0.969 -11.466 2.626 -3.397
1.857513707999999 -0.078 0.115 0.975 -13.344 4.58 -2.748
1.8649137499999995 -0.087 0.109 0.987 -15.191 4.824 -3.977
1.8769308329999959 -0.093 0.113 0.994 -15.954 5.618 -1.817
1.8889313330000022 -0.09 0.096 0.987 -16.061 7.328 0.336
1.8963362499999974 -0.085 0.07 0.978 -15.779 11.748 0.435
1.9082768330000022 -0.102 0.068 0.998 -14.924 16.069 0.298
1.9156157910000005 -0.124 0.077 1.028 -13.534 16.153 0.656
1.9275840829999993 -0.139 0.061 1.031 -12.076 12.198 0.672
1.9349080829999963 -0.152 0.061 1.039 -11.13 4.748 0.771
1.9469714159999967 -0.139 0.067 1.027 -9.42 -1.695 1.305
1.958882250000002 -0.108 0.076 0.991 -8.565 -3.496 3.573
1.9664392500000005 -0.074 0.083 0.957 -9.29 0.924 6.115
1.978470332999997 -0.066 0.071 0.958 -8.687 10.519 5.962
1.985773082999998 -0.062 0.053 0.963 -7.641 17.786 6.092
1.9977893749999964 -0.067 0.047 1.023 -5.901 17.427 4.237
2.005236249999996 -0.07 0.06 1.024 -4.733 12.053 2.618
2.017391541000002 -0.076 0.062 1.006 -5.122 8.466 0.603
2.0246614160000007 -0.074 0.075 0.997 -7.137 8.42 -0.885
2.0367299159999988 -0.076 0.071 0.999 -9.672 10.588 -1.87
2.0487734579999994 -0.059 0.064 0.977 -11.427 14.328 -2.649
2.055592541000003 -0.077 0.065 0.958 -12.26 21.802 -3.229
2.067846375000002 -0.105 0.064 0.985 -12.802 27.634 -2.008
2.0748566250000025 -0.119 0.062 1.003 -10.962 28.45 -1.832
2.086837625000001 -0.149 0.068 1.033 -8.481 24.931 -0.42
2.098813749999998 -0.164 0.056 1.027 -7.29 16.779 0.038
2.106458707999998 -0.181 0.052 1.006 -8.504 9.443 0.947
2.118371541000002 -0.172 0.047 0.982 -10.237 2.496 1.718
2.1257245830000002 -0.148 0.052 0.968 -12.45 -0.191 1.275
2.137698332999996 -0.116 0.052 0.955 -14.099 0.412 1.695
2.1450643330000005 -0.084 0.036 0.939 -14.87 6.214 -0.214
2.1568057499999966 -0.076 0.027 0.958 -14.863 14.649 -2.55
2.168910832999998 -0.077 0.021 0.973 -14.977 22.237 -4.656
2.175932416000002 -0.098 0.022 0.992 -14.855 27.046 -4.641
2.188023041000001 -0.127 0.022 1.003 -14.344 26.756 -5.153
2.1950378330000007 -0.161 0.047 1.007 -13.962 23.42 -3.87
2.2070463749999973 -0.195 0.055 0.99 -14.0 18.878 -1.489
2.2144440000000003 -0.193 0.04 0.977 -14.405 13.794 2.069
2.226402125 -0.172 0.024 0.968 -14.763 10.603 1.885
2.2384266660000023 -0.171 0.016 0.977 -14.962 10.55 0.298
2.2454606659999996 -0.17 0.007 0.984 -14.198 12.71 -0.328
2.2572720829999966 -0.137 -0.001 1.005 -11.458 10.947 -1.336
2.264547332999996 -0.132 0.011 0.988 -9.412 8.763 -2.29
2.2765856660000026 -0.101 0.017 0.928 -9.618 12.0 -3.191
2.2886131659999975 -0.092 0.028 0.906 -12.275 19.519 -4.832
2.2958247500000013 -0.117 0.031 0.892 -15.58 27.985 -6.076
2.3077420409999974 -0.196 0.016 0.923 -18.74 33.672 -4.756
2.314837415999996 -0.245 0.003 0.949 -19.924 32.206 -4.336
2.326921665999997 -0.297 -0.0 1.002 -19.412 21.656 -3.992
2.338612624999996 -0.294 -0.003 1.017 -18.076 6.771 -2.145
2.3456491250000013 -0.243 -0.017 1.004 -17.031 -3.969 -0.137
2.35779625 -0.177 -0.022 0.984 -15.389 -5.275 0.618
2.364750082999997 -0.137 -0.016 0.951 -14.084 -0.527 -0.076
2.3768155830000026 -0.123 -0.015 0.958 -13.42 7.824 -2.076
2.3886531249999976 -0.133 -0.01 0.966 -13.16 17.191 -3.748
2.395747874999998 -0.18 -0.022 0.948 -14.893 23.214 -3.55
2.4075012910000027 -0.181 -0.082 1.004 -16.031 26.366 -6.954
2.414682583000001 -0.274 -0.043 1.048 -15.466 15.504 -8.901
2.426483666000003 -0.3 -0.009 1.04 -14.191 2.191 -2.992
2.4386841660000016 -0.233 -0.027 1.009 -13.053 -4.29 0.16
2.4457607080000017 -0.182 -0.035 0.96 -13.618 -0.611 -1.519
2.457643040999997 -0.171 -0.036 0.958 -14.481 9.267 -3.305
2.4646074999999996 -0.188 -0.032 0.96 -15.221 17.977 -3.069
2.4766392080000017 -0.191 -0.053 0.973 -14.763 24.863 -2.565
2.4884351250000023 -0.22 -0.061 0.985 -13.916 27.748 -3.931
2.495621082999996 -0.26 -0.049 1.007 -12.229 25.397 -4.046
2.507312790999997 -0.289 -0.029 1.03 -10.695 16.74 -3.084
