Time AX AY AZ GX GY GZ
0.0143459169999999 0.207 0.166 0.973 0.397 -6.87 -4.038
0.0265015420000018 0.214 0.151 1.005 -2.29 0.107 -3.763
0.0322654170000014 0.195 0.14 0.972 -3.481 7.115 -4.076
0.0460414590000013 0.182 0.12 0.964 -2.504 9.878 -4.053
0.0581440420000021 0.177 0.102 0.931 -0.336 7.176 -4.153
0.0653997920000009 0.167 0.102 0.906 3.237 -0.74 -4.42
0.0774958750000003 0.17 0.115 0.936 5.206 -9.45 -4.412
0.0847252090000019 0.195 0.132 0.954 5.122 -14.466 -3.618
0.0968388339999997 0.22 0.159 0.975 3.725 -14.382 -3.473
0.104157666999999 0.247 0.172 0.977 1.809 -9.282 -3.74
0.1161200000000022 0.258 0.166 0.999 0.176 -1.13 -3.084
0.1284648749999988 0.255 0.149 1.007 -0.84 8.038 -1.145
0.1357536249999995 0.223 0.126 0.991 -0.45 13.267 0.382
0.1477163340000018 0.192 0.115 0.952 1.221 9.763 0.481
0.1551779999999993 0.176 0.124 0.948 2.84 1.13 -0.305
0.1671154590000014 0.194 0.131 0.978 2.412 -6.351 -0.664
0.1744085000000019 0.211 0.147 1.02 0.198 -9.611 -0.763
0.186672584 0.24 0.139 1.028 -1.282 -7.779 0.588
0.1941739170000005 0.244 0.135 1.019 -2.603 -2.443 1.908
0.2061807090000016 0.244 0.126 1.048 -3.74 4.115 2.947
0.2185294169999991 0.226 0.119 1.026 -4.305 5.435 3.771
0.2258144590000022 0.225 0.118 1.014 -2.832 2.542 3.649
0.2379365839999998 0.216 0.112 1.025 -3.344 -2.053 3.611
0.2454635839999994 0.23 0.113 1.015 -3.427 -6.198 4.351
0.2577575420000002 0.243 0.123 1.059 -4.847 -8.725 6.763
0.2652589590000005 0.246 0.134 1.053 -6.473 -5.756 8.55
0.2775423749999994 0.229 0.148 1.043 -7.84 -0.649 8.756
0.2849017919999994 0.214 0.15 1.048 -9.076 5.611 7.992
0.2970530000000018 0.205 0.132 1.046 -9.702 9.366 7.267
0.3044153750000014 0.207 0.096 1.021 -8.359 8.87 7.809
0.3166757920000016 0.216 0.07 1.0 -4.954 4.122 9.779
0.3287291669999987 0.185 0.063 0.993 -1.244 -0.504 11.351
0.3362435420000018 0.165 0.096 1.032 0.069 -4.015 9.847
0.3482696250000003 0.177 0.11 1.019 1.137 -6.176 6.641
0.3557599170000003 0.197 0.127 1.03 2.099 -8.076 4.038
0.3677367919999987 0.204 0.134 1.049 1.458 -7.847 3.504
0.3753079170000006 0.225 0.134 1.044 -0.076 -5.374 4.672
0.3874905840000018 0.236 0.123 1.074 -3.206 -0.374 8.191
0.3945432500000017 0.23 0.102 1.062 -5.153 2.954 12.038
0.4067368340000001 0.223 0.086 1.026 -4.534 2.916 14.344
0.414514834000002 0.224 0.075 1.012 -2.55 -0.771 15.565
0.4261447919999988 0.214 0.082 1.032 0.115 -3.275 14.924
0.4383033750000003 0.212 0.092 1.024 3.206 -0.58 12.733
0.4454509170000023 0.216 0.081 1.044 6.038 5.389 10.023
0.4576617499999997 0.199 0.08 1.046 8.504 9.939 7.885
0.4649100839999995 0.171 0.082 1.026 10.618 11.321 5.412
0.4769891669999992 0.177 0.085 1.048 11.649 9.939 3.351
0.4841690000000014 0.22 0.079 1.068 10.336 3.504 4.473
0.4964477920000014 0.252 0.084 1.111 7.214 -2.519 8.244
0.5084499170000001 0.282 0.1 1.158 2.313 -2.069 13.702
0.5160669589999998 0.258 0.121 1.151 -2.336 -2.0 16.908
0.527970333999999 0.261 0.112 1.17 -6.756 6.534 17.672
0.5352821670000019 0.245 0.114 1.141 -9.244 13.321 17.389
0.547073000000001 0.234 0.095 1.132 -10.985 16.908 17.252
0.5540899589999988 0.195 0.084 1.098 -11.626 16.847 17.351
0.5661667090000009 0.169 0.089 1.08 -11.908 11.618 15.214
0.5781976250000014 0.172 0.088 1.069 -11.687 5.053 11.763
0.5855112499999997 0.189 0.062 1.067 -11.672 -0.832 12.16
0.597729833999999 0.2 0.069 1.075 -12.557 -3.977 14.0
0.6052354169999994 0.202 0.064 1.044 -13.603 -5.336 14.718
0.6170605000000009 0.199 0.077 1.049 -14.832 -5.855 14.153
0.6244643750000023 0.2 0.083 1.051 -16.824 -6.084 14.237
0.6364139170000023 0.195 0.089 1.048 -18.718 -5.267 13.229
0.6486442920000002 0.21 0.086 1.061 -20.473 -3.924 12.099
0.6559577919999988 0.203 0.073 1.035 -20.427 -0.58 11.313
0.6679686250000003 0.19 0.052 1.035 -19.481 3.84 10.855
0.6749459170000023 0.174 0.028 0.989 -17.076 4.748 11.069
0.6873115839999997 0.155 0.018 0.961 -13.244 -0.74 10.519
0.6945970000000017 0.137 0.03 0.913 -8.275 -9.145 8.038
0.7068724169999996 0.147 0.051 0.936 -4.977 -17.229 4.779
0.7140975000000012 0.19 0.08 0.994 -5.924 -21.863 0.756
0.7263625420000004 0.241 0.095 1.025 -8.435 -18.504 -1.359
0.7385292919999991 0.276 0.098 1.053 -11.214 -5.382 -0.145
0.7456973749999989 0.281 0.073 1.049 -13.71 10.435 3.435
0.7577455420000021 0.246 0.057 0.995 -14.45 20.489 7.496
0.7648207090000021 0.222 0.046 0.946 -13.573 21.496 10.794
0.7768240420000012 0.206 0.037 0.919 -11.58 15.107 12.321
0.7824623750000015 0.194 0.06 0.945 -10.771 8.336 12.58
0.7959788339999996 0.181 0.093 0.993 -12.985 5.015 10.756
0.8081873339999994 0.194 0.094 0.975 -14.847 4.802 9.519
0.8154967090000014 0.152 0.112 0.959 -15.344 5.595 6.992
0.827512917 0.134 0.077 0.989 -15.687 8.618 1.817
0.834922542000001 0.172 0.015 0.953 -13.405 10.153 0.84
0.8468420840000022 0.222 -0.021 0.939 -12.824 6.595 5.656
0.8541269170000021 0.221 0.002 0.931 -11.466 2.489 10.672
0.8662950840000008 0.197 0.042 0.946 -10.069 2.481 11.573
0.878192834 0.2 0.065 0.962 -11.053 6.947 9.466
0.8853824589999988 0.211 0.074 0.958 -13.0 12.282 7.58
0.897508375000001 0.218 0.062 0.923 -12.397 15.573 6.573
0.9048308750000018 0.199 0.038 0.933 -11.008 18.626 5.931
0.9167960000000016 0.181 0.004 0.929 -8.13 19.58 6.405
0.924150959000002 0.15 -0.006 0.937 -4.985 16.695 6.847
0.9363449999999992 0.121 -0.006 0.926 -2.183 10.664 5.611
0.9486261670000004 0.127 0.013 0.95 -2.008 3.679 3.847
0.955730292000002 0.133 0.022 0.947 -3.023 -1.046 1.305
0.968219542 0.141 0.031 0.962 -4.672 -1.565 0.611
0.9757169589999996 0.151 0.034 0.978 -7.496 -0.824 0.603
0.9879605839999996 0.17 0.023 0.966 -9.656 -1.565 0.519
0.9953227499999996 0.182 0.008 0.975 -10.947 -0.008 0.115
1.0074610839999991 0.204 -0.023 0.969 -10.809 4.649 0.183
1.0148414999999993 0.208 -0.035 0.962 -9.565 9.634 1.603
1.0268792090000003 0.19 -0.022 0.962 -7.977 12.855 2.542
1.033857042000001 0.149 0.002 0.929 -6.305 14.756 1.427
1.046221083999999 0.113 0.026 0.914 -6.214 12.992 -2.023
1.0586555000000004 0.104 0.019 0.934 -5.611 6.794 -4.847
1.0656064590000014 0.105 -0.009 0.935 -4.511 -1.718 -5.145
1.0781237499999996 0.114 -0.041 0.931 -2.0 -9.779 -3.656
1.085134374999999 0.118 -0.061 0.938 0.725 -17.359 -2.58
1.0976098749999998 0.155 -0.056 0.953 1.832 -23.611 -1.817
1.104673334000001 0.207 -0.019 0.993 0.893 -25.779 -1.618
1.1168647920000012 0.25 0.031 1.061 -4.069 -17.74 -1.634
1.1239208749999996 0.25 0.069 1.085 -12.336 0.58 -3.534
1.1358803749999993 0.264 0.058 1.076 -19.122 19.641 -3.603
1.148118750000002 0.239 0.014 1.051 -24.443 33.527 -1.252
1.155252917000002 0.185 -0.031 1.025 -28.305 41.55 2.702
1.1674204589999988 0.13 -0.06 0.978 -30.702 41.618 6.473
1.174523624999999 0.072 -0.069 0.937 -29.206 33.809 6.656
1.1870267090000013 0.058 -0.069 0.911 -24.794 20.328 4.389
1.194053084 0.05 -0.066 0.925 -21.092 6.992 1.481
1.2066715840000022 0.062 -0.06 0.969 -18.115 -1.924 -3.038
1.2186172920000011 0.093 -0.06 0.969 -15.16 -6.855 -5.618
1.2261545419999995 0.115 -0.064 1.0 -13.58 -9.802 -5.901
1.2382586250000005 0.139 -0.071 0.98 -12.458 -11.824 -5.244
1.2455364170000005 0.179 -0.073 1.003 -12.557 -12.023 -4.947
1.2577154999999998 0.221 -0.073 1.044 -13.863 -6.534 -3.214
1.2650984170000008 0.247 -0.068 1.062 -15.626 4.977 -0.695
1.2770472089999991 0.258 -0.066 1.058 -17.588 19.435 1.931
1.2844035839999997 0.204 -0.055 1.055 -21.275 32.473 3.328
1.2964573339999994 0.158 -0.051 1.021 -23.45 39.26 1.931
1.308708166999999 0.099 -0.06 0.976 -24.115 39.847 0.229
1.3157128749999991 0.052 -0.073 0.945 -22.809 34.672 -3.176
1.3278947089999988 0.042 -0.104 0.946 -20.511 25.099 -4.725
1.3351646250000009 0.065 -0.129 0.946 -18.267 12.053 -3.519
1.347109875000001 0.06 -0.133 0.949 -13.786 1.725 -2.863
1.3545948340000002 0.073 -0.148 0.953 -8.076 -4.786 -1.733
1.3668125420000017 0.096 -0.15 0.949 -2.588 -9.962 -0.267
1.3740866250000003 0.115 -0.135 0.955 2.359 -13.664 1.183
1.3864139170000025 0.101 -0.083 0.997 2.832 -16.191 -0.885
1.3983960840000016 0.093 -0.026 1.0 1.321 -17.229 -7.756
1.4057315000000017 0.15 -0.012 1.017 -1.084 -16.389 -12.16
1.4176852090000018 0.221 -0.05 1.042 -5.099 -10.718 -10.664
1.4252692089999996 0.26 -0.091 1.045 -9.16 1.107 -5.412
1.4372630840000014 0.26 -0.115 1.018 -10.382 15.656 0.107
1.44463 0.216 -0.103 0.99 -9.924 27.573 3.786
1.456849999999999 0.146 -0.076 0.976 -10.595 32.42 4.008
1.4641769589999996 0.074 -0.052 0.942 -11.664 29.481 0.45
1.476227625 0.034 -0.065 0.924 -13.702 19.565 -3.664
1.488214292000002 0.043 -0.092 0.912 -13.191 6.901 -5.718
1.495590584000002 0.063 -0.124 0.911 -11.664 -4.664 -5.901
1.507764667 0.106 -0.146 0.897 -8.733 -12.397 -4.412
1.515062541999999 0.141 -0.144 0.926 -6.779 -16.878 -1.809
1.5273365840000004 0.162 -0.11 0.946 -5.58 -16.656 0.473
1.5347867090000022 0.178 -0.1 0.963 -4.481 -11.931 1.595
1.547076792000002 0.175 -0.089 0.967 -4.237 -4.847 1.733
1.5546984170000009 0.157 -0.088 0.979 -4.519 0.969 0.649
1.5669744590000008 0.163 -0.091 0.944 -3.817 3.015 -0.206
1.574274083999999 0.158 -0.086 0.921 -3.153 3.87 -0.275
1.5865117499999997 0.148 -0.085 0.925 -4.069 5.397 -0.611
1.5983581250000007 0.158 -0.087 0.934 -5.26 6.336 -0.725
1.606051334 0.173 -0.096 0.936 -5.992 8.328 -0.267
1.6179763340000015 0.16 -0.097 0.953 -6.0 12.58 0.366
1.6255062920000007 0.153 -0.121 0.934 -5.397 16.802 1.298
1.6375244170000016 0.154 -0.127 0.921 -4.626 17.779 2.397
1.6452350419999997 0.131 -0.123 0.898 -4.061 16.977 2.687
1.657164292000001 0.13 -0.12 0.891 -3.099 16.099 3.267
1.664583834000002 0.122 -0.115 0.877 -2.908 14.183 4.069
1.6766128340000002 0.127 -0.111 0.885 -2.0 12.618 4.969
1.6841329999999992 0.124 -0.121 0.901 -1.0 11.977 5.611
1.6958838749999998 0.11 -0.113 0.93 -1.244 14.076 4.534
1.7084250420000018 0.098 -0.126 0.898 -0.206 17.817 2.748
1.7156931250000014 0.081 -0.143 0.903 2.16 19.763 1.313
1.7277305839999997 0.074 -0.149 0.884 5.45 18.908 0.893
1.7351554590000011 0.062 -0.14 0.879 8.267 16.191 0.427
1.747135416999999 0.071 -0.127 0.896 11.221 13.26 0.649
1.7543637089999995 0.074 -0.107 0.924 13.099 11.031 1.672
1.7664501250000022 0.06 -0.078 0.964 11.748 8.687 1.901
1.7785927920000013 0.04 -0.073 0.977 9.137 7.962 1.29
1.785954750000002 0.041 -0.093 0.982 6.344 5.855 0.893
1.798244167 0.058 -0.118 0.976 5.244 2.916 1.565
1.8054561249999992 0.064 -0.13 0.954 5.466 1.198 2.557
1.817743709000002 0.064 -0.134 0.958 6.069 0.214 3.153
1.8252278339999997 0.067 -0.116 0.947 5.206 -0.351 3.145
1.8373229590000015 0.053 -0.1 0.957 3.519 0.679 1.771
1.8448029999999989 0.052 -0.102 0.967 2.611 3.588 0.069
1.8568109590000008 0.044 -0.106 0.979 2.076 7.16 -0.885
1.864191292000001 0.025 -0.116 0.982 1.519 8.695 -1.611
1.876176292 0.023 -0.121 0.963 2.557 6.542 -2.267
1.8883903340000003 0.031 -0.124 0.94 3.107 2.214 -2.031
1.895733042 0.063 -0.123 0.953 3.145 -1.214 -1.198
1.908028625 0.107 -0.124 0.968 3.069 -1.29 1.351
1.9152738340000008 0.108 -0.11 0.992 1.496 2.695 2.74
1.92760775 0.107 -0.101 0.987 2.084 10.542 2.931
1.934705791999999 0.072 -0.103 0.988 2.214 16.282 2.435
1.9466954590000007 0.042 -0.104 0.965 3.687 17.031 1.733
1.9542898340000008 0.029 -0.12 0.972 5.374 11.656 1.809
1.9664144169999993 0.029 -0.126 0.957 7.305 4.626 2.427
1.9786446250000012 0.031 -0.112 0.945 8.573 -1.16 2.878
1.9859281670000009 0.036 -0.1 0.946 8.374 -5.214 2.305
1.998138292 0.041 -0.07 0.969 4.893 -8.473 0.901
2.005714084000001 0.067 -0.044 0.964 3.115 -9.252 -0.74
2.0177383750000004 0.105 -0.062 0.996 0.656 -5.725 -0.527
2.025261792000002 0.12 -0.087 1.009 -1.687 2.74 1.542
2.037516 0.117 -0.097 0.986 -2.397 10.275 3.626
2.044785833999999 0.097 -0.089 0.968 -3.168 15.885 4.26
2.0570921250000005 0.065 -0.084 0.962 -2.435 20.336 4.191
2.064118708999999 0.05 -0.09 0.965 -1.939 21.771 4.885
2.076649584000002 0.012 -0.083 0.97 -4.046 18.656 3.802
2.0825957089999996 -0.01 -0.069 0.941 -5.198 14.771 1.832
2.096147000000002 0.003 -0.094 0.977 -6.466 11.496 0.672
2.1084252919999997 0.012 -0.118 0.966 -7.908 8.893 1.618
2.116031917000001 0.019 -0.138 0.969 -8.267 6.489 3.13
2.1281832919999992 0.005 -0.13 0.964 -7.916 4.573 4.649
2.135482459000002 0.004 -0.117 0.965 -6.519 3.481 4.481
2.147747584000001 0.011 -0.111 0.954 -4.55 4.962 4.107
2.155309209000002 0.029 -0.112 0.949 -3.328 7.328 4.45
2.1674890419999997 0.042 -0.11 0.956 -3.397 8.443 5.718
2.175044291999999 0.022 -0.096 0.965 -4.611 7.832 5.664
2.187328917000002 0.015 -0.091 0.972 -5.931 8.389 4.489
2.194556834 0.011 -0.107 0.971 -6.466 10.786 3.557
2.2068457919999993 0.011 -0.12 0.967 -6.405 11.924 2.847
2.2140738750000004 -0.004 -0.111 0.975 -6.221 11.275 2.802
2.2263783749999995 -0.022 -0.091 0.969 -5.137 10.008 1.771
2.2324465840000016 -0.014 -0.113 0.969 -5.008 9.366 1.557
2.246406499999999 -0.024 -0.118 0.953 -5.649 8.664 1.924
2.258708000000002 -0.021 -0.116 0.948 -6.939 5.221 2.58
2.266176709 -0.029 -0.117 0.952 -7.748 2.649 3.336
2.278387417000001 -0.033 -0.112 0.959 -8.901 1.962 3.168
2.2859662920000012 -0.032 -0.125 0.939 -8.344 2.87 1.962
2.298404584 -0.03 -0.134 0.914 -7.015 2.672 0.908
2.3060272919999996 -0.017 -0.152 0.921 -6.214 2.008 0.649
2.3182780419999993 -0.005 -0.146 0.924 -5.344 2.985 2.649
2.3257235000000023 -0.011 -0.125 0.914 -4.473 3.565 2.885
2.337930084 -0.016 -0.132 0.928 -3.84 4.71 3.328
2.3455333750000023 -0.046 -0.124 0.93 -4.427 6.466 2.443
2.3577059170000005 -0.048 -0.132 0.933 -4.58 6.977 -0.137
2.365302333999999 -0.045 -0.161 0.925 -4.374 6.168 -1.893
2.3774799170000023 -0.021 -0.167 0.924 -3.588 4.756 -0.969
2.3850722920000003 -0.03 -0.151 0.906 -2.42 4.916 0.634
2.397264 -0.034 -0.123 0.93 -1.916 5.084 0.443
2.404774542000002 -0.042 -0.124 0.917 -1.924 4.756 1.008
2.4173156670000004 -0.046 -0.126 0.863 -0.519 3.687 0.427
2.4246008339999996 -0.036 -0.134 0.908 0.435 0.145 0.687
2.4371030420000004 -0.02 -0.125 0.926 -0.481 -2.832 0.962
2.4446865839999994 -0.005 -0.106 0.96 -0.29 -2.046 1.29
2.457107292 -0.004 -0.108 0.954 -1.069 1.939 1.611
2.464581292000002 -0.013 -0.117 0.909 -1.832 4.229 2.672
2.4768502920000017 -0.021 -0.127 0.893 -2.221 2.176 4.168
2.484330333999999 -0.031 -0.136 0.881 -1.366 -0.84 5.344
2.4968192920000014 -0.043 -0.135 0.869 -1.031 -3.191 4.794
