Time AX AY AZ GX GY GZ
0.0136047079999954 0.075 -0.062 0.983 3.336 12.359 7.198
0.0259527079999983 0.034 -0.082 0.963 4.443 8.893 4.992
0.0329235419999989 0.018 -0.083 0.974 5.939 6.435 2.84
0.0451398749999967 0.016 -0.069 0.97 7.405 3.939 2.084
0.0521594169999986 0.002 -0.042 0.962 9.328 -1.985 0.359
0.0645765419999975 0.046 -0.023 0.986 9.221 -4.969 -2.748
0.0715626249999985 0.077 -0.019 1.01 6.427 -1.466 -3.74
0.0839903329999955 0.085 -0.044 1.014 4.053 3.45 -2.855
0.0961936249999979 0.084 -0.063 0.992 4.153 4.496 -1.611
0.102913749999999 0.065 -0.058 0.983 5.985 3.13 -2.115
0.1151570829999997 0.066 -0.041 1.002 6.344 3.595 -4.885
0.1222465419999991 0.081 -0.03 0.98 6.626 4.252 -3.771
0.1344184169999991 0.037 -0.027 1.014 4.924 5.405 -1.962
0.1413955419999979 0.023 -0.022 1.001 3.214 3.153 -2.779
0.1536891249999996 0.022 -0.009 0.992 2.992 -0.313 -5.641
0.1659042499999969 0.041 -0.013 1.002 3.504 -2.695 -6.107
0.1729591670000019 0.085 -0.018 1.036 3.863 -1.511 -4.802
0.1852109169999991 0.089 -0.02 0.997 5.672 0.489 -4.351
0.1922552919999987 0.091 -0.025 1.0 7.534 1.618 -3.733
0.2044979169999976 0.071 -0.017 0.999 7.977 3.176 -3.748
0.2115736669999961 0.036 -0.002 0.99 7.229 4.458 -3.84
0.2238592499999967 0.023 -0.006 1.0 6.137 4.214 -4.214
0.2359607920000002 0.028 -0.001 1.034 4.382 5.053 -6.031
0.2428294579999956 0.036 0.004 1.03 3.084 7.763 -6.58
0.2551841249999995 0.046 0.005 1.002 2.939 7.45 -5.969
0.2622187919999987 0.039 0.009 0.993 4.321 2.511 -3.45
0.274090000000001 0.043 0.033 1.007 4.45 -2.191 -2.893
0.2862377080000016 0.063 0.037 1.026 3.893 -2.817 -3.122
0.2930534169999959 0.053 0.027 1.036 3.42 0.031 -3.71
0.3052093749999969 0.035 0.021 0.994 4.366 0.374 -4.977
0.3121757500000015 0.02 0.041 1.001 4.794 -2.198 -7.924
0.3243162919999989 0.031 0.045 0.998 4.16 -2.504 -10.58
0.3364111670000014 0.041 0.041 1.005 2.366 0.092 -9.756
0.3431672919999968 0.053 0.035 0.985 2.122 2.511 -6.634
0.3554191249999974 0.048 0.053 0.979 2.252 1.748 -3.16
0.3621615419999955 0.06 0.067 1.006 1.794 2.595 -2.122
0.374442375000001 0.053 0.054 0.99 2.344 4.046 -3.328
0.3800967919999962 0.054 0.041 0.994 4.298 1.84 -3.977
0.3935445830000006 0.081 0.059 1.015 6.763 0.74 -5.473
0.4057425419999987 0.081 0.064 1.014 6.588 1.725 -7.191
0.4125354580000007 0.065 0.079 1.029 4.519 2.672 -6.939
0.4249973749999967 0.067 0.1 1.026 2.191 1.321 -6.466
0.4323182500000015 0.078 0.087 1.027 -0.382 -0.58 -3.641
0.4441829579999989 0.049 0.075 1.025 -2.489 -1.466 0.435
0.4564324999999982 0.041 0.081 1.006 -2.107 -4.412 0.496
0.4637828749999997 0.067 0.096 1.016 -1.756 -6.924 -2.107
0.4758195419999964 0.083 0.11 1.041 -2.435 -2.687 -4.397
0.483031957999998 0.069 0.112 1.012 -4.092 1.389 -5.687
0.4950474999999983 0.046 0.097 0.934 -4.664 -1.344 -4.618
0.5023722919999969 0.064 0.067 0.91 -3.931 -9.817 -0.595
0.5145636669999973 0.137 0.018 0.935 -0.794 -12.802 4.534
0.5218029170000023 0.223 0.01 0.969 2.855 -3.542 9.702
0.5337057079999994 0.224 0.051 1.031 3.847 11.0 11.802
0.5455989169999995 0.166 0.084 1.043 2.885 23.618 10.336
0.5526666250000005 0.095 0.109 1.042 1.931 26.542 8.519
0.5646750829999974 -0.003 0.129 1.037 -0.443 22.053 4.42
0.5722112919999987 -0.055 0.11 0.994 -2.145 11.389 0.939
0.5845392919999952 -0.055 0.077 0.979 -2.573 -1.664 0.412
0.5902796669999972 0.015 0.053 1.002 -3.023 -8.153 1.206
0.6039787919999995 0.071 0.029 1.032 -3.779 -1.313 3.198
0.6160173749999984 0.081 0.004 0.983 -2.267 8.588 5.565
0.6233121670000017 0.026 0.023 0.929 1.191 12.679 5.939
0.6353319999999982 -0.014 0.067 0.924 3.725 11.046 3.13
0.6423682080000006 -0.034 0.074 0.954 5.473 10.473 -2.763
0.6544642920000001 -0.033 0.058 0.967 6.26 11.374 -7.779
0.6661885420000004 -0.039 0.029 0.932 7.237 9.817 -10.053
0.673282792000002 -0.027 0.004 0.939 7.611 6.534 -9.511
0.6854490420000019 -0.014 0.021 0.96 7.053 6.458 -9.084
0.6928523329999976 -0.009 0.028 0.967 6.504 9.115 -9.519
0.7048393329999953 -0.012 0.048 0.949 6.962 9.481 -9.076
0.711921916999998 -0.015 0.094 0.948 6.519 6.038 -8.595
0.7239382499999962 -0.014 0.096 0.955 6.26 2.779 -8.427
0.7359822079999958 0.014 0.027 0.95 6.527 -2.824 -5.305
0.743247249999996 0.058 -0.01 0.97 6.695 -4.794 -2.084
0.7552849169999973 0.073 0.011 1.025 5.786 0.832 -4.191
0.7624282919999956 0.09 0.019 1.047 3.847 13.435 -7.939
0.7741808329999955 0.022 0.041 1.028 1.244 24.977 -11.87
0.7859771250000023 -0.046 0.053 0.965 1.153 27.458 -16.122
0.7931287079999976 -0.079 0.021 0.924 4.321 19.366 -16.389
0.8051086249999955 -0.108 0.028 0.936 7.901 6.931 -15.878
0.812345624999999 -0.082 0.066 0.971 9.061 -5.832 -17.008
0.8241557919999991 -0.015 0.05 0.989 8.122 -13.771 -15.328
0.836213917000002 0.045 0.031 1.013 6.969 -14.137 -13.153
0.8432357499999981 0.066 0.06 1.062 4.252 -7.527 -15.893
0.8550641249999984 0.069 0.093 1.058 0.71 2.115 -22.985
0.8623815830000012 0.045 0.07 1.056 -1.771 9.947 -28.122
0.8741580000000013 0.002 0.03 1.034 -1.901 11.954 -30.305
0.8861900829999954 -0.03 0.02 0.973 1.076 6.069 -29.519
0.8933292500000007 -0.019 0.013 0.954 2.405 -5.061 -25.405
0.905298082999998 0.019 0.038 0.974 0.557 -13.733 -20.015
0.9123923329999996 0.06 0.055 0.981 -2.053 -14.26 -14.389
0.9244188750000006 0.067 0.066 0.988 -3.702 -10.641 -11.962
0.936454542 0.036 0.084 0.979 -5.092 -6.069 -14.908
0.9435197079999966 0.03 0.02 0.974 -2.679 -2.679 -20.931
0.9555518749999976 0.051 -0.059 1.0 0.702 -1.733 -22.183
0.9628435830000016 0.059 -0.066 1.018 0.466 0.969 -18.397
0.9746285000000016 0.027 -0.076 0.99 2.885 0.344 -13.29
0.9819334580000004 0.074 -0.072 1.059 3.595 2.038 -10.656
0.9938080829999976 0.066 -0.036 1.063 2.969 11.908 -9.313
1.005793208 -0.014 0.013 1.065 1.214 16.947 -8.504
1.0124004999999985 -0.075 0.087 1.053 -2.084 15.656 -15.45
1.0246003330000022 -0.065 0.089 1.024 -3.603 8.344 -24.076
1.0315869579999983 -0.037 0.04 1.034 -5.298 2.634 -21.901
1.0438217919999957 -0.008 0.022 1.019 -7.542 -2.687 -19.733
1.0564458750000014 0.064 -0.018 1.011 -7.008 -2.847 -17.382
1.063143832999998 0.105 -0.047 1.005 -5.443 4.374 -14.351
1.0754068749999988 0.084 -0.04 0.987 -3.275 12.695 -12.107
1.082123082999999 0.018 -0.004 0.966 -0.443 15.87 -12.748
1.0944327919999992 -0.011 0.025 0.947 2.122 11.824 -14.832
1.1063762080000004 -0.014 0.038 0.977 2.443 8.015 -14.786
1.1134208749999956 -0.004 0.039 0.991 0.466 5.45 -13.229
1.1254121249999969 0.024 0.019 0.993 -1.809 5.519 -11.901
1.1324129579999962 0.024 0.01 0.995 -4.023 7.885 -11.679
1.1444637919999965 0.012 0.008 0.969 -2.74 10.702 -14.359
1.1563870419999986 0.002 -0.008 0.936 0.481 10.359 -16.481
1.163549124999996 -0.004 0.005 0.937 3.412 7.344 -17.084
1.175480332999996 -0.014 0.025 0.955 4.527 1.656 -15.618
1.1824833330000004 0.002 0.037 0.965 4.298 -4.893 -13.206
1.1944718330000017 0.031 0.036 0.981 1.87 -9.252 -11.412
1.2019668749999963 0.045 0.04 1.001 -2.237 -7.771 -12.42
1.213997542000001 0.038 0.045 1.018 -6.359 -1.847 -16.924
1.2259842499999962 0.071 -0.03 0.963 -5.282 3.679 -19.489
1.2333848749999987 0.047 -0.074 0.955 -1.13 7.427 -18.153
1.2453111250000006 -0.016 -0.043 0.933 2.412 5.58 -18.115
1.252642999999999 -0.02 -0.02 0.935 4.618 -0.176 -18.359
1.2646606249999977 0.021 -0.039 0.963 5.794 -4.237 -15.008
1.270549500000001 0.038 -0.01 0.998 5.405 -1.992 -12.16
1.28374625 0.034 0.01 1.008 4.42 1.252 -12.305
1.295519167000002 -0.01 0.05 1.013 1.863 2.0 -14.878
1.3028734170000007 -0.01 0.062 1.027 0.733 0.817 -19.244
1.3146240829999982 0.018 0.009 1.026 0.481 0.954 -20.023
1.3218992079999978 0.002 -0.037 1.014 -0.42 0.969 -17.099
1.3339224579999964 0.01 -0.048 0.982 -0.779 -2.382 -13.359
1.346041041999996 0.016 -0.049 0.97 0.672 -4.374 -10.794
1.353292500000002 -0.004 -0.049 0.954 2.351 -3.779 -10.359
1.3652631249999985 -0.042 -0.021 0.951 2.626 -3.954 -13.534
1.372564875000002 -0.046 -0.013 0.947 4.252 -4.282 -17.634
1.3848961249999974 -0.017 -0.055 0.967 6.824 -2.939 -19.107
1.3921793749999978 -0.011 -0.042 1.006 7.298 -0.618 -18.198
1.4042783330000006 -0.007 -0.026 1.02 5.328 -1.099 -16.74
1.4161761669999962 0.004 -0.023 1.03 2.244 -2.489 -15.504
1.4235056670000006 0.023 -0.038 1.022 0.298 -2.229 -14.55
1.435540582999998 0.03 -0.053 1.011 0.115 -0.893 -12.702
1.4425776249999984 0.013 -0.032 1.007 1.084 0.252 -12.389
1.4546502919999966 0.001 -0.002 0.996 1.366 0.733 -13.916
1.460627707999997 -0.001 -0.01 1.007 1.855 1.947 -15.206
1.4737106669999989 0.001 -0.033 0.993 2.824 1.832 -15.0
1.4858002920000004 0.017 -0.047 0.998 2.687 -1.031 -14.13
1.4930863749999972 0.03 -0.058 1.008 2.573 -2.748 -14.137
1.5050992079999972 0.075 -0.084 1.007 2.702 -2.557 -12.527
1.5121731249999968 0.083 -0.075 1.019 2.595 1.031 -11.0
1.5242624169999957 0.055 -0.041 1.007 0.962 3.58 -11.084
1.5362818329999968 0.016 -0.018 0.973 -0.015 3.237 -13.053
1.5431562079999992 0.002 -0.048 0.97 1.87 -1.763 -14.962
1.5552716669999995 0.002 -0.053 0.975 4.282 -6.519 -15.481
1.5623922079999986 0.039 -0.028 1.008 4.847 -8.748 -15.244
1.5744904579999996 0.086 -0.035 1.039 3.061 -6.855 -13.656
1.5820229999999995 0.124 -0.031 1.044 0.16 -1.954 -9.733
1.593995417000002 0.114 -0.034 1.023 -1.74 1.901 -6.687
1.606211541999997 0.052 -0.021 1.005 -2.107 3.015 -7.237
1.6131165420000002 0.035 -0.018 0.969 0.107 -0.321 -10.328
1.6253173750000016 0.03 -0.05 0.981 3.313 -4.305 -10.695
1.6327024579999971 0.039 -0.035 1.011 3.374 -6.473 -10.084
1.6446206250000015 0.08 -0.034 1.018 2.718 -6.038 -7.939
1.6519241669999971 0.099 -0.055 1.035 0.924 -4.031 -4.977
1.6642140000000012 0.127 -0.056 1.008 -0.832 -2.397 -1.527
1.6778678330000003 0.15 -0.047 1.008 -2.74 1.443 2.824
1.683849666999997 0.088 -0.036 0.999 -5.466 7.603 4.809
1.6962034999999958 0.023 -0.028 0.939 -4.397 9.916 2.275
1.7032191670000003 -0.007 -0.085 0.913 2.031 7.824 0.031
1.7151862919999985 -0.029 -0.084 0.917 9.137 1.962 -0.939
1.7221439169999968 -0.036 -0.049 0.939 12.947 -2.687 -2.565
1.7347288750000018 0.0 -0.063 0.982 15.237 -6.603 -3.313
1.7417625829999963 0.056 -0.058 1.016 15.252 -7.496 -0.702
1.753929499999998 0.08 0.002 1.043 12.496 -3.748 1.275
1.7658176670000003 0.09 0.021 1.043 9.397 1.42 2.008
1.7728882079999977 0.064 0.009 1.04 7.45 5.763 2.908
1.785384041999997 0.016 0.004 1.032 7.855 6.718 2.321
1.7921874999999972 -0.03 -0.005 1.052 8.321 4.351 1.351
1.8045087499999968 -0.058 -0.016 1.051 7.542 1.71 -1.061
1.811962291999997 -0.031 -0.017 1.044 7.069 -2.565 -1.939
1.824206042 -0.004 -0.017 1.048 6.924 -3.992 -1.527
1.8361625419999967 0.012 0.013 1.02 6.87 -2.763 -1.489
1.843489292000001 0.033 0.029 1.012 6.855 -2.504 -0.672
1.8555504169999963 0.032 0.048 0.999 6.092 -1.076 -0.038
1.8626560419999976 0.008 0.052 0.992 4.947 0.084 -1.832
1.8746350420000013 0.02 0.03 0.981 5.282 -0.405 -3.649
1.8819942499999984 0.02 0.007 0.991 5.794 -1.931 -3.435
1.8939987500000015 0.036 0.01 0.999 5.611 -2.695 -2.16
1.906008958000001 0.033 0.031 0.981 6.519 -2.344 -1.496
1.9133919579999985 0.014 0.051 0.971 8.198 -2.863 -3.366
1.9250293329999977 0.01 0.051 0.955 10.046 -4.344 -6.466
1.932414332999997 0.058 0.048 0.94 11.115 -6.878 -4.412
1.9441384579999976 0.086 0.062 0.977 10.458 -5.649 -0.489
1.9565424999999976 0.072 0.057 0.98 8.855 -1.908 0.779
1.9635632919999964 0.068 0.015 0.984 10.504 0.191 0.931
1.9753029170000005 0.008 0.046 1.004 10.42 0.771 -1.443
1.9825477919999983 -0.014 0.058 1.005 9.962 -0.298 -4.542
1.9946537080000013 -0.004 0.052 1.003 10.779 -3.931 -4.221
2.001941125000002 -0.013 0.077 0.988 9.84 -5.427 -5.298
2.014066291999995 -0.017 0.051 0.955 10.672 -6.595 -6.702
2.0259389579999976 -0.007 0.007 0.93 13.145 -9.275 -5.473
2.0333229169999996 -0.01 0.018 0.926 16.099 -9.565 -6.763
2.0452844579999976 0.034 0.018 0.957 18.214 -9.092 -7.382
2.052396832999996 0.042 0.033 1.014 16.031 -6.237 -6.924
2.064490792000001 0.047 0.057 1.038 12.176 -2.466 -5.679
2.0764209999999963 0.025 0.038 1.02 8.443 -0.435 -5.573
2.083446375000001 0.005 0.019 0.964 8.038 -1.244 -5.595
2.095570207999998 0.019 0.01 0.918 11.321 -4.473 -4.977
2.102553792000002 0.003 0.0 0.891 14.992 -5.878 -5.397
2.114745124999999 0.004 -0.001 0.852 19.305 -7.55 -9.168
2.1206789169999993 0.035 -0.03 0.877 24.74 -10.412 -11.58
2.133769000000001 0.104 -0.03 0.935 26.87 -10.122 -9.099
2.1457779579999965 0.094 0.01 1.006 25.718 -3.573 -6.107
2.152895457999996 0.043 0.036 1.008 22.611 -1.351 -5.519
2.1648971669999995 0.01 0.055 1.014 19.137 -6.313 -5.229
2.171951667000002 0.017 0.055 1.01 18.458 -9.809 -4.504
2.183716875000002 0.052 0.063 1.015 19.931 -12.382 -5.237
2.1958336670000023 0.048 0.063 1.026 20.092 -9.878 -7.153
2.2028423329999995 0.04 0.04 1.012 20.893 -7.26 -8.878
2.2147147079999954 0.023 0.012 1.008 23.427 -8.069 -8.13
2.222023207999996 0.0 0.026 1.022 23.16 -11.542 -8.511
2.233779499999997 0.001 0.074 1.055 20.069 -14.099 -10.206
2.2455087079999956 0.014 0.076 1.074 16.725 -12.336 -11.153
2.252704999999999 0.03 0.085 1.059 13.473 -9.023 -10.527
2.264413791999999 0.034 0.104 1.026 11.061 -9.198 -10.427
2.276406625 0.037 0.094 1.005 9.58 -12.374 -9.947
2.2835159579999953 0.036 0.076 0.987 8.824 -15.031 -10.084
2.2953187079999964 0.077 0.053 1.002 10.084 -15.908 -9.107
2.3023865420000007 0.074 0.066 1.083 10.229 -10.672 -8.947
2.314410875 0.026 0.101 1.108 7.809 -2.435 -13.046
2.3264099579999993 -0.047 0.113 1.099 4.786 0.321 -17.817
2.333506958000001 0.007 -0.059 1.048 8.832 2.031 -19.252
2.3455346669999955 0.891 -2.0 1.057 72.214 34.779 2.359
2.3525769170000004 0.351 -0.225 1.458 -14.214 -22.023 -2.321
2.3647981669999965 -0.177 1.593 1.218 -50.229 10.748 0.87
2.372039166999997 0.237 0.686 0.694 -21.733 -30.489 24.015
2.3839474580000015 0.446 -0.346 1.179 -10.748 -26.962 43.908
2.3958125830000014 0.22 -0.447 1.284 -29.802 39.015 43.931
2.4031149169999964 -0.132 0.295 0.82 -33.092 52.237 22.275
2.4147269579999957 -0.368 0.513 0.613 -16.282 21.267 18.405
2.4222451249999963 -0.279 0.347 0.62 0.74 -24.389 11.046
2.4341818329999967 -0.021 0.06 0.805 16.366 -34.26 9.87
2.4461961669999965 0.176 -0.195 1.047 20.649 -17.183 16.382
2.4532979580000003 0.073 0.133 1.141 4.489 10.298 16.099
2.4650974579999954 0.002 0.145 0.945 6.267 19.626 13.573
2.472388207999998 -0.016 -0.193 1.023 6.527 5.71 10.229
2.4845922080000022 -0.119 0.207 1.011 -5.214 -3.992 5.656
2.491971624999998 -0.045 0.348 0.89 -0.779 -10.931 4.298
2.5039427919999966 0.066 0.101 0.936 3.45 -14.153 6.061
