Time,AX,AY,AZ,GX,GY,GZ,T
0.0000,0.1380,-0.0600,1.1730,-7.9540,21.6340,-42.3210,35.0200
0.0004,0.1280,-0.0500,1.1760,-7.5110,22.7330,-43.4050,35.0200
0.0009,0.1190,-0.0650,1.1850,-7.0080,23.5420,-44.0610,34.9800
0.0013,0.1130,-0.0950,1.1960,-6.8240,24.8240,-43.7710,35.1200
0.0017,0.0960,-0.1100,1.1790,-8.0610,24.9010,-42.3660,35.0200
0.0020,0.0700,-0.1200,1.1620,-7.3440,23.8470,-42.7020,35.0700
0.0023,0.0600,-0.1350,1.1460,-2.5340,22.0760,-44.1220,35.1200
0.0027,0.0730,-0.1450,1.1640,-1.4350,20.0460,-44.8550,35.0200
0.0030,0.0850,-0.1240,1.1630,-2.6870,19.2670,-42.9620,34.9800
0.0034,0.0900,-0.0890,1.1420,-3.0690,19.0990,-42.3050,35.1200
0.0038,0.0990,-0.0730,1.1530,-4.2440,18.7790,-42.1830,35.0700
0.0041,0.1060,-0.0750,1.1640,-6.9620,19.5420,-41.5110,35.1700
0.0045,0.1060,-0.0790,1.1670,-7.8630,20.0150,-41.2670,35.1200
0.0049,0.1040,-0.1020,1.1430,-4.9470,19.6180,-42.0460,35.0700
0.0053,0.1070,-0.1180,1.1560,-4.7630,18.6410,-43.6030,35.0700
0.0057,0.1350,-0.1130,1.1700,-1.0840,19.7400,-44.6720,35.0200
0.0062,0.1360,-0.1010,1.1670,-1.5880,20.4270,-43.8630,35.0700
0.0066,0.1460,-0.0840,1.1580,-5.1300,22.1830,-43.0080,35.0700
0.0070,0.1400,-0.0730,1.1700,-4.1370,23.2370,-43.8930,35.0200
0.0073,0.1310,-0.0830,1.1710,-6.6560,23.2980,-44.4580,34.9800
0.0077,0.1280,-0.0750,1.1740,-7.4810,23.2820,-44.6410,34.9300
0.0080,0.1360,-0.0860,1.1820,-8.1980,24.7630,-45.5880,35.0200
0.0084,0.1360,-0.1020,1.1830,-6.8240,25.0230,-45.4960,34.9800
0.0088,0.1360,-0.1290,1.2010,-9.2210,26.0920,-44.1070,35.1200
0.0093,0.1190,-0.1380,1.1780,-9.1600,26.1680,-42.9770,35.0700
0.0098,0.1170,-0.1420,1.1750,-8.2140,25.2370,-43.7560,35.0700
0.0102,0.1230,-0.1520,1.1820,-8.8700,23.4350,-43.4050,35.1200
0.0106,0.1350,-0.1270,1.1840,-8.5950,22.3970,-42.6560,35.0200
0.0109,0.1460,-0.1330,1.1970,-7.5570,22.3050,-43.8320,35.0700
0.0112,0.1530,-0.1290,1.2010,-8.1530,22.1680,-43.7100,35.0200
0.0115,0.1670,-0.1410,1.1950,-6.8850,21.7100,-43.3280,35.0700
0.0118,0.1670,-0.1490,1.1960,-4.9470,22.2140,-43.5570,35.0700
0.0123,0.1730,-0.1450,1.2010,-4.2750,22.2440,-44.0610,35.0200
0.0130,0.1740,-0.1280,1.1790,-5.1910,23.8780,-43.6030,35.0200
0.0134,0.1740,-0.1030,1.1710,-5.8630,23.1910,-43.8470,34.9800
0.0138,0.1750,-0.0840,1.1840,-4.1370,23.4500,-45.1600,35.0200
0.0142,0.1810,-0.1050,1.1850,-3.2370,24.3820,-47.6180,34.9800
0.0146,0.1950,-0.1300,1.1760,-4.0460,25.1450,-48.3820,35.0700
0.0150,0.2000,-0.1400,1.1870,-4.4270,25.8780,-47.6640,35.1200
0.0154,0.1920,-0.1390,1.1910,-5.8930,26.3820,-48.2140,34.8800
0.0157,0.1760,-0.1280,1.1730,-3.8020,27.2060,-48.7940,35.0700
0.0161,0.1780,-0.1190,1.1760,-5.3890,28.2600,-49.0690,35.0200
0.0165,0.1630,-0.1260,1.1630,-10.5500,27.9690,-47.0840,35.0700
0.0168,0.1670,-0.1250,1.1760,-8.9310,25.1910,-48.8240,35.1700
0.0172,0.1630,-0.1450,1.1830,-6.1980,26.1370,-50.8850,35.0200
0.0178,0.1810,-0.1370,1.1880,-8.7630,25.5420,-50.5500,35.0700
0.0182,0.1590,-0.1720,1.1800,-10.3510,26.9470,-49.3740,35.0700
0.0187,0.1600,-0.1750,1.1490,-5.6180,26.4430,-49.8320,35.0200
0.0204,0.1390,-0.2020,1.1630,-6.7180,24.0000,-51.4350,35.0700
0.0208,0.1320,-0.1690,1.1340,-4.0610,21.8320,-52.7020,35.0200
0.0212,0.1410,-0.1150,1.1570,-5.2820,19.1150,-52.0000,35.0200
0.0216,0.1500,-0.0670,1.1410,-7.1910,20.6110,-53.0380,35.0700
0.0219,0.1560,-0.0550,1.1710,-9.0690,22.9770,-54.1530,35.1200
0.0223,0.1430,-0.0610,1.1720,-8.5500,23.9540,-57.6640,35.0200
0.0226,0.1400,-0.1170,1.1660,-4.5040,23.8020,-61.6490,35.0700
0.0233,0.1360,-0.1660,1.1620,0.5800,23.4810,-62.8240,35.1200
0.0236,0.1370,-0.1910,1.1730,-0.2290,24.3970,-61.8170,35.0200
0.0242,0.1440,-0.1650,1.1870,-3.0690,23.8170,-57.1150,35.0700
0.0246,0.1450,-0.1480,1.1670,-1.6790,23.6950,-54.3210,35.0200
0.0249,0.1600,-0.1240,1.1690,-4.0150,21.6640,-53.6030,35.0200
0.0253,0.1700,-0.0970,1.1860,-4.2600,22.0460,-53.5110,35.0700
0.0279,0.1780,-0.0960,1.1890,0.8240,20.3970,-54.3360,35.0200
0.0283,0.1920,-0.1080,1.1610,3.8170,21.8320,-60.1220,35.1200
0.0286,0.1920,-0.1200,1.1650,4.4430,21.0990,-63.4050,35.0700
0.0290,0.2110,-0.1610,1.1720,6.0760,22.1220,-65.1300,35.0200
0.0294,0.2070,-0.1850,1.1890,3.3280,23.6180,-64.1530,35.0700
0.0298,0.1870,-0.1410,1.2250,-1.0380,26.5500,-63.5730,34.9800
0.0301,0.1730,-0.0790,1.1970,-8.1830,29.9240,-59.0690,35.0200
0.0305,0.1510,-0.0370,1.1830,-6.3820,32.4430,-58.8090,35.0700
0.0308,0.1460,-0.0170,1.1690,-5.4810,34.8090,-58.8700,35.0700
0.0311,0.1190,-0.0460,1.1570,-1.8020,31.7860,-59.3740,35.1200
0.0315,0.1030,-0.0920,1.1550,-4.9770,32.2440,-65.2210,35.0700
0.0319,0.1020,-0.1450,1.1400,-4.7790,30.3210,-64.4730,35.1700
0.0322,0.0860,-0.1960,1.1410,-5.3590,28.1070,-67.6490,35.1200
0.0325,0.0570,-0.1880,1.1420,-6.8700,25.3130,-66.6110,35.0700
0.0328,0.0540,-0.1710,1.1320,-6.3510,22.6560,-64.4890,35.0700
0.0332,0.0630,-0.1630,1.1190,-5.6490,19.0380,-64.0920,34.9300
0.0335,0.0570,-0.1540,1.1150,-1.4810,16.7790,-63.4350,34.9800
0.0364,0.0520,-0.1680,1.1170,-3.6490,12.4120,-60.5800,35.0700
0.0369,0.0500,-0.1610,1.1340,-6.6560,12.1370,-56.6410,35.0200
0.0376,0.0960,-0.1540,1.1550,-11.1600,8.9470,-55.5270,34.9800
0.0383,0.1000,-0.1100,1.1930,-7.2980,10.2600,-55.8930,35.0700
0.0391,0.1000,-0.0810,1.1750,-7.2820,11.7250,-58.1980,35.1200
0.0395,0.1170,-0.0420,1.1750,0.3510,12.9160,-62.0460,34.9800
0.0404,0.1250,-0.0410,1.1840,2.5190,15.8470,-64.1680,34.9800
0.0408,0.1220,-0.0810,1.2030,-4.6720,16.3970,-66.9770,34.9800
0.0412,0.1230,-0.0840,1.2300,-1.4500,19.4660,-70.3970,35.0700
0.0416,0.0930,-0.0810,1.2160,-0.3970,24.1680,-71.7400,35.1200
0.0421,0.0400,-0.1030,1.1880,-3.2060,28.3050,-68.2750,35.0200
0.0436,-0.0190,-0.1660,1.1670,-7.7710,25.0690,-65.9390,35.0700
0.0441,-0.0440,-0.1730,1.1480,-7.0990,23.1760,-63.0990,35.0200
0.0445,-0.0680,-0.1870,1.1160,-8.6870,18.8090,-60.5500,35.0700
0.0451,-0.0660,-0.1730,1.1340,-5.6340,15.8170,-60.8550,35.1700
0.0459,-0.0380,-0.1740,1.1190,-8.4270,12.5190,-60.9470,35.0200
0.0463,-0.0390,-0.1520,1.1590,-4.6870,9.3740,-59.8930,35.0200
0.0468,-0.0080,-0.1250,1.1600,0.9770,8.8550,-59.7400,34.9800
0.0472,0.0300,-0.0880,1.1980,6.4890,9.4500,-64.0150,35.1200
0.0475,0.0520,-0.0800,1.2010,9.2370,10.7330,-67.8780,35.0700
0.0480,0.0600,-0.0940,1.2050,7.4660,10.0610,-69.2980,34.9800
0.0483,0.0630,-0.1330,1.2140,7.7560,12.0310,-69.8320,34.9300
0.0488,0.0630,-0.1560,1.2190,6.4270,14.3970,-67.7250,35.0700
0.0493,0.0530,-0.1510,1.1930,7.7860,16.0920,-65.0690,35.0700
0.0497,0.0500,-0.1660,1.1850,7.3440,16.0310,-64.5340,34.9300
0.0500,0.0590,-0.1550,1.1880,8.0460,15.9690,-62.7180,35.0700
0.0502,0.0630,-0.1350,1.1780,7.7250,16.5190,-59.2370,34.8800
0.0504,0.0660,-0.1290,1.1580,8.9770,16.1220,-57.5730,35.0200
0.0509,0.0680,-0.1240,1.1490,9.0990,16.3970,-57.3740,35.0700
0.0512,0.0760,-0.1100,1.1520,5.3440,16.4430,-57.2820,34.9800
0.0514,0.0850,-0.0700,1.1350,3.6950,16.0920,-58.6260,35.0200
0.0517,0.0830,-0.0660,1.1420,6.5340,18.9620,-58.6260,35.0700
0.0519,0.0890,-0.0920,1.1360,6.9620,19.0230,-62.8090,34.9800
0.0520,0.0840,-0.0770,1.1230,8.1370,17.9540,-63.9850,35.1200
0.0522,0.0840,-0.0850,1.1170,9.6340,16.9920,-63.7400,34.9800
0.0524,0.0850,-0.0850,1.1240,5.8630,15.8470,-62.4270,35.0200
0.0526,0.0960,-0.0730,1.1460,7.2820,15.7710,-61.0380,34.9300
0.0528,0.1020,-0.0620,1.1470,2.7940,16.3660,-58.4730,34.9800
0.0529,0.1030,-0.0290,1.1480,-2.1530,17.2820,-55.6030,35.1200
0.0531,0.1090,-0.0020,1.1570,-4.9160,17.1760,-56.9770,34.9300
0.0533,0.1070,-0.0150,1.1510,-2.9310,17.4960,-60.7630,35.0700
0.0535,0.1050,-0.0370,1.1850,-1.8630,17.7710,-62.3820,34.9300
0.0536,0.1100,-0.0680,1.1940,-2.0760,19.2980,-64.4890,35.0700
0.0538,0.1090,-0.1020,1.1970,-1.9080,19.7710,-65.6950,35.0700
0.0540,0.0980,-0.1110,1.1830,-2.6410,21.2210,-64.5500,35.0200
0.0543,0.0830,-0.1190,1.1750,-5.1300,21.6180,-60.4890,34.9800
0.0544,0.0730,-0.1300,1.1880,-5.8470,21.3740,-58.2290,34.8800
0.0546,0.0760,-0.0920,1.1820,-4.7790,20.8240,-58.0000,35.0200
0.0548,0.0960,-0.0740,1.1800,-5.7100,23.0230,-57.5270,34.9800
0.0550,0.0950,-0.0610,1.1730,-6.4270,21.0080,-57.6180,35.0700
0.0551,0.1010,-0.0590,1.2100,-5.1150,22.9620,-59.9850,34.9800
0.0553,0.1090,-0.0310,1.1990,-2.3210,23.5730,-61.7400,34.9800
0.0556,0.1030,-0.0620,1.1960,1.1150,24.1980,-64.9470,35.0200
0.0561,0.1030,-0.0900,1.1940,1.7860,24.8400,-67.0840,35.0200
0.0564,0.0880,-0.1070,1.2130,0.5340,26.1830,-63.2060,35.0700
0.0566,0.0600,-0.1400,1.1900,-1.3740,26.0150,-59.4050,35.0200
0.0567,0.0600,-0.1430,1.1800,-2.6870,25.3740,-56.9470,34.9800
0.0569,0.0610,-0.1290,1.1690,-2.9920,25.7710,-53.8780,34.9800
0.0571,0.0610,-0.1270,1.1760,-5.3280,25.5420,-51.6030,35.0200
0.0573,0.0540,-0.1030,1.1790,-4.7630,25.1760,-51.7710,34.9300
0.0574,0.0550,-0.0990,1.1600,-1.0990,24.5650,-54.3820,34.9800
0.0576,0.0680,-0.1020,1.1780,2.1370,23.7560,-56.4270,34.9300
0.0578,0.0760,-0.0900,1.1660,0.9470,23.4810,-53.8470,34.9800
0.0579,0.0580,-0.1060,1.1500,-0.1530,23.3740,-51.8320,34.9800
0.0581,0.0580,-0.1070,1.1530,-3.9690,23.6950,-49.2980,35.0200
0.0592,0.0670,-0.0790,1.1510,-3.9390,21.6790,-47.4660,34.9300
0.0599,0.0800,-0.0600,1.1500,-3.0840,20.7630,-49.9240,34.9800
0.0602,0.0990,-0.0660,1.1560,0.7940,20.9160,-52.9770,35.0200
0.0605,0.0960,-0.0940,1.1750,-0.1830,22.3660,-52.9010,34.9800
0.0609,0.0860,-0.1050,1.1780,-3.4350,24.1980,-49.8630,35.0700
0.0613,0.0730,-0.1170,1.1570,-4.3360,25.5570,-47.0080,35.0200
0.0616,0.0640,-0.1020,1.1650,-6.9770,25.3890,-44.5800,34.9300
0.0620,0.0650,-0.1110,1.1530,-6.6720,24.5500,-43.5730,34.9800
0.0624,0.0740,-0.1030,1.1590,-6.1370,23.4810,-43.9390,35.0200
0.0628,0.0790,-0.0770,1.1670,-7.1150,22.8700,-43.8780,34.9800
0.0629,0.0710,-0.0650,1.1620,-3.9540,23.6030,-45.8020,34.9800
0.0631,0.0740,-0.0840,1.1960,-3.4960,20.7180,-46.9920,34.9300
0.0634,0.1160,-0.1310,1.1820,0.0460,18.1830,-44.7180,35.0200
0.0636,0.1170,-0.1290,1.1920,2.5800,19.1760,-47.0080,34.9800
0.0637,0.1290,-0.1170,1.1960,2.8550,20.5190,-46.4120,34.9300
0.0639,0.1310,-0.1020,1.1810,3.8170,22.1680,-45.2520,35.1200
0.0640,0.1220,-0.1140,1.1640,2.1220,23.0380,-46.2600,35.0700
0.0642,0.1150,-0.1060,1.1500,1.3280,23.3440,-45.2670,35.0200
0.0643,0.1010,-0.1120,1.1380,-0.2900,22.8850,-44.4430,34.9800
0.0746,0.1040,-0.1020,1.1340,-1.4960,22.4120,-44.7480,34.9800
0.0870,0.1050,-0.0890,1.1440,-3.8470,22.2900,-43.0840,34.9300
0.0935,0.1000,-0.0920,1.1620,-5.4960,22.0760,-42.4890,35.0700
0.1059,0.0920,-0.0890,1.1540,-3.3590,21.6790,-45.0380,34.9800
0.1124,0.0990,-0.0940,1.1560,-0.9770,21.2520,-46.5500,34.9300
0.1248,0.0920,-0.1160,1.1650,-1.0690,20.6560,-47.1300,34.9800
0.1369,0.0920,-0.1120,1.1780,-0.9620,20.4730,-46.2750,35.0200
0.1438,0.0900,-0.1400,1.1780,-0.6560,20.7180,-46.6720,35.0200
0.1559,0.0870,-0.1250,1.1860,-2.9770,20.6870,-45.7100,35.0700
0.1628,0.0850,-0.1210,1.1800,-2.2900,21.3590,-44.5950,34.9300
0.1749,0.0830,-0.1320,1.1820,-3.2520,21.1150,-43.2060,34.9800
0.1871,0.0740,-0.1430,1.1750,-0.4730,20.4430,-43.6490,34.9800
0.1938,0.0710,-0.1490,1.1780,0.9160,20.3210,-43.0690,34.9300
0.2060,0.0850,-0.1310,1.1640,0.2140,20.4120,-41.1150,35.1200
0.2130,0.0850,-0.1230,1.1620,1.8470,20.7330,-41.8930,34.9800
0.2253,0.1030,-0.1160,1.1870,2.1530,20.9160,-41.9390,34.9300
0.2379,0.1040,-0.1020,1.1720,3.3590,21.8320,-43.0990,35.0700
0.2447,0.1040,-0.0790,1.1740,2.9920,22.4890,-44.8400,34.9800
0.2570,0.0990,-0.0700,1.1740,2.0460,21.7710,-44.7630,35.1200
0.2638,0.0830,-0.1020,1.1870,4.6110,21.2820,-44.6110,34.9800
0.2760,0.1090,-0.0930,1.1810,5.5420,21.2670,-47.7250,34.9800
0.2830,0.1000,-0.0980,1.2020,13.0230,24.2750,-47.1600,35.0200
0.2953,0.0890,-0.1100,1.1770,5.9540,25.0840,-43.8780,35.0700
0.3076,0.0880,-0.1110,1.1790,4.0920,27.0230,-40.6260,35.1200
0.3141,0.0960,-0.1170,1.1790,-5.1150,28.9470,-36.0460,35.0200
0.3267,0.0700,-0.1200,1.1630,-4.4270,28.0920,-36.1980,34.9800
0.3337,0.0690,-0.1180,1.1730,-0.7790,27.8170,-39.6950,35.0200
0.3455,0.0660,-0.1170,1.1630,-1.1300,28.0310,-38.3820,35.1200
0.3578,0.0480,-0.1080,1.1420,-4.8550,27.2210,-35.3440,34.9800
0.3646,0.0090,-0.0870,1.0980,-1.7250,24.6560,-36.3510,35.0200
0.3769,0.0060,-0.0990,1.0960,3.4810,18.9920,-38.8700,35.0200
0.3837,0.0260,-0.1000,1.1160,1.5880,16.1530,-38.5800,35.0700
0.3959,0.0770,-0.0990,1.1240,1.3440,14.1530,-38.9160,34.9300
0.4027,0.1080,-0.0790,1.1690,-0.7180,14.3820,-37.7560,35.0200
0.4152,0.1360,-0.0590,1.1750,-0.4270,15.8780,-38.5190,34.9800
0.4269,0.1360,-0.0750,1.1870,-5.0230,18.7630,-38.5500,35.1200
0.4340,0.1250,-0.0830,1.1810,-8.7330,20.4430,-36.6870,34.9800
0.4462,0.1100,-0.0820,1.1860,-11.4500,21.5730,-36.0000,35.0700
0.4529,0.0930,-0.0880,1.1770,-8.8550,22.3660,-38.0610,35.0200
0.4652,0.0640,-0.1130,1.1690,-8.1370,19.7860,-38.7020,35.0700
0.4773,0.0570,-0.1390,1.1770,-7.8020,18.5950,-39.0230,35.0700
0.4848,0.0690,-0.1610,1.1840,-8.0760,16.4580,-39.7710,35.0200
0.4964,0.0810,-0.1470,1.1980,-8.6260,16.5800,-39.8930,34.9800
0.5029,0.1060,-0.1440,1.2100,-10.7180,18.1980,-38.9620,34.9800
0.5151,0.1080,-0.1540,1.2120,-8.0610,19.4050,-39.7710,35.0200
0.5273,0.0930,-0.1630,1.1980,-3.5110,19.8020,-42.4270,34.9800
0.5341,0.0960,-0.1120,1.1740,-3.1600,18.4890,-41.9390,35.0200
0.5465,0.0940,-0.0890,1.1800,0.7790,18.3510,-43.7710,35.0700
0.5533,0.1120,-0.0920,1.1750,-0.2440,15.8630,-43.0530,34.9800
0.5653,0.1280,-0.0670,1.1890,-1.2370,16.6410,-43.9240,35.0200
0.5775,0.1520,-0.0500,1.1830,0.5190,18.0610,-44.7630,35.1200
0.5846,0.1450,-0.0840,1.1990,-2.7630,19.2670,-42.7790,34.9800
0.5966,0.1480,-0.0990,1.1910,-4.2140,19.9690,-40.9160,35.0200
0.6037,0.1350,-0.1290,1.1780,-6.1830,19.3280,-40.5800,34.9800
0.6155,0.1260,-0.1200,1.1990,-2.8400,19.0380,-41.2520,35.0700
0.6277,0.1310,-0.1320,1.1940,-3.7710,19.0690,-39.7100,35.0200
0.6348,0.1330,-0.1340,1.2080,-4.0000,19.9540,-37.6180,35.0700
0.6468,0.1370,-0.1360,1.2010,-3.8020,21.5730,-37.8470,35.1700
0.6536,0.1250,-0.1040,1.1800,-3.2520,22.2290,-38.3210,35.0200
0.6658,0.1020,-0.0970,1.1490,-0.3660,22.1370,-40.9620,35.0700
0.6716,0.0970,-0.1140,1.1600,0.4580,20.5950,-43.4050,35.1200
0.6849,0.1110,-0.1150,1.1790,0.5950,20.2900,-44.5800,34.9300
0.6971,0.1100,-0.1140,1.1840,0.8700,19.9540,-46.0150,34.9800
0.7039,0.1170,-0.1040,1.1780,1.9240,20.8550,-45.4660,35.0200
0.7163,0.1030,-0.1100,1.1920,-0.9310,20.2140,-43.1300,35.0200
0.7235,0.1000,-0.1180,1.1660,-3.6340,22.8850,-41.2980,34.9800
0.7356,0.1040,-0.1100,1.1780,-6.2440,22.6260,-40.3210,35.0200
0.7474,0.0930,-0.1060,1.1810,-4.4120,23.4960,-38.6560,34.9800
0.7546,0.0810,-0.1050,1.1730,-4.7180,22.5500,-38.0000,35.0700
0.7665,0.0730,-0.0980,1.1470,-4.5650,22.6870,-39.9080,34.9300
0.7737,0.0830,-0.1080,1.1660,0.6720,22.0760,-42.6560,34.9800
0.7857,0.0950,-0.1140,1.1740,0.1980,21.0530,-42.0310,35.0700
0.7976,0.1080,-0.1100,1.1810,-2.2440,21.1910,-40.4580,35.0200
0.8047,0.1100,-0.0980,1.1920,-0.8240,21.5730,-40.2900,35.0700
0.8168,0.1100,-0.0990,1.1720,1.1910,22.6560,-40.8240,35.0700
0.8240,0.1220,-0.1020,1.1910,-1.5570,23.3890,-39.2820,35.1200
0.8357,0.1120,-0.1120,1.1920,-1.8320,24.8090,-39.8020,35.0700
0.8428,0.1100,-0.1090,1.1960,-1.2820,26.1530,-41.4660,35.0200
0.8550,0.0960,-0.1060,1.1880,0.6870,27.1910,-42.7630,35.0700
0.8670,0.0710,-0.1200,1.1770,-0.1370,27.2670,-41.8020,35.0700
0.8743,0.0590,-0.1340,1.1640,-0.9310,26.5340,-41.1760,35.1200
0.8860,0.0430,-0.1410,1.1580,0.6260,24.7630,-40.6410,35.0200
0.8933,0.0550,-0.1480,1.1340,-0.6720,22.5340,-39.2060,34.9800
0.9054,0.0650,-0.1510,1.1500,0.4730,21.0380,-39.0840,35.0200
0.9175,0.0780,-0.1230,1.1540,0.7020,22.0150,-37.8320,34.9800
0.9245,0.0990,-0.1230,1.1710,-1.9080,19.9540,-38.3360,35.0700
0.9365,0.1020,-0.0910,1.1650,-4.9010,22.3510,-36.8700,35.0200
0.9435,0.0940,-0.0850,1.1560,-1.1910,24.7480,-38.2600,35.0700
0.9557,0.0890,-0.1060,1.1820,-0.9620,26.2140,-39.0530,34.9800
0.9678,0.0880,-0.1130,1.1500,-1.9390,29.0380,-38.0920,35.0200
0.9747,0.0550,-0.1020,1.1690,-0.9620,27.8320,-38.4730,34.9800
0.9868,0.0490,-0.1060,1.1530,-1.5110,26.3970,-38.8850,35.0200
0.9935,0.0460,-0.1150,1.1480,-1.7560,24.9470,-38.4270,35.0200
1.0058,0.0490,-0.1150,1.1540,1.0530,23.8170,-39.6180,35.0700
1.0114,0.0650,-0.1210,1.1790,-2.3510,23.6180,-37.7100,35.0200
1.0247,0.0670,-0.1200,1.1550,-4.9010,24.5190,-36.3660,35.0200
1.0369,0.0700,-0.1020,1.1500,-5.0690,22.7940,-35.3130,35.0700
1.0436,0.0680,-0.0980,1.2000,-1.2820,20.7630,-34.7630,35.0200
1.0559,0.0730,-0.1130,1.1520,-1.5880,24.9010,-36.0760,34.9300
1.0624,0.0910,-0.0890,1.1530,-1.5880,26.7480,-39.1450,34.9800
1.0750,0.0810,-0.0990,1.1670,-6.3660,27.5420,-37.0080,35.0200
1.0868,0.0930,-0.0900,1.2220,-7.6340,26.9770,-34.3970,35.0700
1.0938,0.1000,-0.1090,1.1800,-8.5800,30.2600,-34.7940,35.0700
1.1058,0.0860,-0.1230,1.1100,-8.4430,27.6950,-35.3280,35.1200
1.1129,0.1130,-0.1130,1.1880,-8.0460,27.6640,-34.4890,35.0700
1.1249,0.0980,-0.1250,1.1950,-11.2820,26.7180,-32.9920,34.9800
1.1372,0.0620,-0.1440,1.1740,-10.1220,28.9770,-33.0840,35.0200
1.1439,0.0590,-0.1330,1.1880,-3.8780,28.8400,-35.5270,35.0700
1.1559,0.0520,-0.1190,1.1400,-3.6340,26.9920,-36.8240,35.0200
1.1630,0.0070,-0.1120,1.2190,-2.9620,23.9540,-37.4660,35.0700
1.1750,0.0430,-0.1230,1.2130,2.0310,23.8780,-39.1300,35.0700
1.1873,0.0550,-0.1420,1.2290,-3.9080,24.7180,-37.0380,35.1200
1.1943,0.0860,-0.1190,1.2040,-7.2210,26.0610,-32.6720,34.9300
1.2063,0.0760,-0.1020,1.1940,-7.7400,28.7630,-34.0310,34.9800
1.2132,0.0900,-0.1140,1.1520,-6.9160,27.0080,-36.1530,34.9300
1.2253,0.0600,-0.1150,1.1690,-5.0690,25.8780,-36.5190,35.0700
1.2376,0.0240,-0.1180,1.1730,-4.2140,25.7400,-35.5570,34.9800
1.2442,0.0450,-0.1130,1.1360,-5.4200,25.5270,-36.1680,35.0200
1.2565,0.0150,-0.1100,1.1770,-3.1450,25.2370,-37.8320,35.0700
1.2636,0.0560,-0.1040,1.1690,-4.8400,21.5730,-36.6110,35.0700
1.2755,0.0680,-0.1240,1.1900,-4.9310,22.6110,-36.2750,35.0200
1.2878,0.0490,-0.1270,1.2070,-5.7100,21.7710,-34.4270,35.0700
1.2945,0.0240,-0.1400,1.1720,-4.7330,23.8930,-34.7180,34.9300
1.3067,0.0080,-0.1570,1.1720,-5.5110,24.3820,-35.5730,35.1200
1.3135,0.0080,-0.1580,1.1830,-3.3130,21.9540,-34.3660,34.9800
1.3258,0.0130,-0.1690,1.1610,-3.3440,23.7250,-35.0380,35.0200
1.3377,0.0060,-0.1540,1.1470,-2.3050,21.2060,-35.3130,35.0200
1.3446,0.0230,-0.1430,1.1450,-1.1910,23.0230,-35.7710,35.0700
1.3568,0.0390,-0.1190,1.1720,0.3210,22.1830,-37.1760,35.1200
1.3640,0.0550,-0.1250,1.1720,1.6790,23.0080,-38.3660,34.9800
1.3762,0.0620,-0.1170,1.1800,-0.9010,23.9240,-36.0460,34.9800
1.3831,0.0670,-0.1300,1.1760,-2.8090,25.8780,-33.7400,34.9300
1.3950,0.0530,-0.1360,1.1670,-3.4200,26.8700,-32.6870,35.0700
1.4074,0.0570,-0.1150,1.1640,-2.2600,26.4430,-33.1600,34.9800
1.4143,0.0660,-0.0940,1.1670,-0.4580,25.5110,-35.6180,35.0200
1.4263,0.0600,-0.0860,1.1720,0.5800,23.2820,-35.5880,34.9800
1.4329,0.0320,-0.0860,1.1700,-2.1370,22.1370,-35.6950,35.0200
1.4453,0.0540,-0.1130,1.1420,-0.6410,22.1220,-37.3280,35.0200
1.4575,0.0700,-0.1080,1.1590,-1.6640,22.6410,-36.6870,35.0700
1.4645,0.0580,-0.1070,1.1900,-2.2900,21.5730,-35.8320,35.0200
1.4764,0.0770,-0.0940,1.2590,-5.7100,20.8090,-33.6950,34.9800
1.4835,0.0780,-0.1250,1.2020,-0.8700,21.8170,-35.3890,34.9800
1.4956,0.0980,-0.1200,1.1870,-0.3820,24.0000,-36.0150,34.9300
1.5076,0.0860,-0.1070,1.2140,-3.0990,26.3050,-36.1220,35.0200
1.5148,0.0730,-0.1230,1.2000,-5.9690,30.2900,-36.0000,34.9800
1.5265,0.0420,-0.0790,1.2110,1.6340,27.6340,-36.2440,35.0200
1.5338,0.0300,-0.1090,1.1390,-1.7560,27.5420,-36.9620,34.9800
1.5457,-0.0230,-0.1210,1.1340,-5.3440,28.8550,-37.6490,35.0700
1.5579,-0.0100,-0.1460,1.0920,-3.7250,25.2980,-37.0690,35.1200
1.5645,0.0100,-0.1520,1.1280,-5.9850,21.8930,-36.8400,34.9800
1.5768,0.0050,-0.1380,1.1560,-3.4350,20.9160,-38.1530,34.9800
1.5838,0.0530,-0.1230,1.1300,-4.9310,20.9310,-37.6340,35.0200
1.5958,0.0430,-0.0980,1.1870,-6.1680,20.4430,-36.7940,34.9800
1.6078,0.0240,-0.1080,1.1860,-7.5420,25.2670,-36.6110,35.1200
1.6149,0.0410,-0.1070,1.1650,-10.1680,22.7180,-34.9620,35.0200
1.6267,0.0160,-0.1470,1.1560,-4.9010,23.1760,-38.0610,35.0700
1.6337,0.0310,-0.1580,1.1770,-7.6490,21.4960,-38.5950,35.0200
1.6457,0.0350,-0.1440,1.1820,-4.9310,20.2750,-37.8320,35.0200
1.6516,0.0500,-0.1340,1.1710,-3.8780,21.9690,-37.7250,35.0700
1.6649,0.0420,-0.1330,1.1980,-7.2820,22.1680,-36.0150,35.0200
1.6770,0.0450,-0.1400,1.1860,-5.0840,23.4500,-37.9540,34.8400
1.6839,0.0340,-0.1330,1.1800,-4.2750,25.2370,-39.7100,35.0700
1.6961,0.0270,-0.1300,1.1880,-3.1760,24.0760,-38.8850,35.0200
1.7026,0.0180,-0.1360,1.1600,-3.7560,24.3510,-40.1220,35.0200
1.7153,0.0170,-0.1310,1.1780,-0.9770,23.7100,-41.3890,35.0700
1.7270,0.0130,-0.1300,1.1780,-4.6720,23.2060,-39.6340,35.0200
1.7342,0.0060,-0.1440,1.1690,-4.5800,22.6410,-38.4730,34.9300
1.7461,0.0130,-0.1350,1.1840,-5.9690,21.6030,-37.3130,35.0700
1.7529,-0.0010,-0.1110,1.1740,-3.9690,22.2290,-38.3970,35.0200
1.7652,-0.0000,-0.1300,1.1950,-1.0840,23.1300,-40.5340,34.9800
1.7771,0.0080,-0.1720,1.1980,-3.8780,23.8630,-38.4890,35.0700
1.7841,-0.0050,-0.1800,1.1590,-6.0310,23.3440,-35.1450,35.0200
1.7961,-0.0280,-0.1790,1.1890,-6.6560,22.4120,-33.0690,34.9800
1.8027,-0.0190,-0.1540,1.1470,-6.0000,21.1910,-32.3510,35.0700
1.8150,-0.0270,-0.1280,1.1400,-7.6790,19.3890,-31.4660,35.0200
1.8270,-0.0340,-0.1250,1.1400,-2.0920,17.9690,-33.8320,34.9800
1.8340,-0.0150,-0.1390,1.1380,1.2060,16.3510,-36.8550,34.8800
1.8458,-0.0130,-0.1640,1.1480,2.8550,13.2370,-37.9080,34.9300
1.8531,0.0230,-0.1570,1.1710,0.8240,15.0530,-37.1150,34.8800
1.8652,0.0130,-0.1390,1.1970,-1.1760,14.8700,-33.9690,34.9800
1.8771,0.0150,-0.1460,1.1660,-0.3360,17.0230,-33.6180,35.0200
1.8841,0.0290,-0.1380,1.2040,-2.2900,16.2140,-32.1220,35.0700
1.8961,0.0350,-0.1390,1.1440,-0.1680,16.7180,-34.0610,35.0200
1.9029,0.0370,-0.1380,1.1310,0.8700,16.7330,-34.2140,34.9800
1.9154,0.0260,-0.1680,1.1370,-2.7790,18.1980,-32.1980,34.9800
1.9273,0.0320,-0.1490,1.1650,-1.5420,17.3440,-31.4500,35.1200
1.9343,0.0210,-0.1370,1.1500,1.6180,17.3590,-34.0000,35.0200
1.9465,0.0270,-0.1440,1.1060,1.8320,16.4430,-35.3130,34.9800
1.9532,0.0340,-0.1410,1.1550,2.3660,15.7400,-36.5950,35.0200
1.9657,0.0540,-0.1150,1.1730,-3.2980,15.3590,-32.9770,34.9800
1.9778,0.0640,-0.0940,1.1840,-5.5110,20.0610,-30.6870,35.0700
1.9845,0.0490,-0.1210,1.1850,-4.7480,21.8320,-30.9920,35.0200
1.9969,0.0170,-0.1490,1.1830,-3.6030,21.9240,-31.6340,35.0700
2.0034,0.0060,-0.1380,1.2000,-3.2370,19.2370,-34.3660,34.9800
2.0159,0.0280,-0.1370,1.1810,0.3660,17.8320,-35.4810,34.9300
2.0231,0.0440,-0.1450,1.2260,-0.7790,19.1600,-34.1070,35.0700
2.0348,0.0390,-0.1410,1.1740,-1.9240,19.1910,-32.3660,34.9800
2.0471,0.0400,-0.1290,1.1830,-0.9920,19.2520,-32.6870,35.0200
2.0541,0.0270,-0.1070,1.1830,0.4890,19.1450,-33.4050,34.9800
2.0660,0.0390,-0.0980,1.1650,-0.9160,19.4500,-34.3970,35.0700
2.0733,0.0400,-0.0750,1.1860,-0.0920,19.4500,-35.2980,35.0200
2.0853,0.0530,-0.0960,1.1750,0.2750,21.3740,-36.1830,35.0700
2.0972,0.0300,-0.1100,1.1930,-3.5730,21.6490,-35.0380,35.0700
2.1044,0.0200,-0.1290,1.1280,-2.0920,22.0460,-35.6950,35.0200
2.1163,0.0030,-0.1380,1.2080,-3.6030,21.3590,-35.7100,35.0700
2.1235,0.0150,-0.1560,1.1600,-3.8170,20.9920,-35.0530,35.0700
2.1352,0.0310,-0.1560,1.2100,-1.0990,21.6180,-35.9390,35.1200
2.1476,0.0300,-0.1570,1.1770,1.8470,23.1910,-37.0230,34.9800
2.1548,0.0130,-0.1800,1.1460,-1.0380,22.7330,-35.1760,34.9800
2.1666,-0.0160,-0.1610,1.1500,-1.0380,21.5420,-34.9620,35.0200
2.1733,-0.0120,-0.1370,1.1650,1.4810,18.6260,-35.9540,34.9800
2.1854,0.0050,-0.1280,1.1790,0.8850,16.9470,-36.3970,35.0200
2.1979,0.0290,-0.1130,1.1730,0.3970,14.8850,-36.1220,35.0200
2.2047,0.0530,-0.1220,1.2050,3.6490,18.7180,-38.5950,35.0700
2.2171,0.0530,-0.0870,1.2380,-0.5190,20.0310,-35.3590,34.9300
2.2239,0.0420,-0.0990,1.1870,-1.1300,21.5110,-34.3970,35.0200
2.2360,0.0240,-0.1200,1.1700,-2.5040,22.6110,-34.5040,34.9800
2.2432,0.0120,-0.1180,1.1970,-4.7330,20.5340,-34.5650,35.0200
2.2552,0.0080,-0.1260,1.1650,0.0150,20.7630,-37.2670,34.9300
2.2672,0.0160,-0.1240,1.1880,-0.5950,20.9620,-37.4350,35.0700
2.2742,0.0100,-0.1450,1.1800,0.4580,21.4960,-37.8020,35.1200
2.2863,0.0060,-0.1740,1.1880,0.8240,19.4200,-37.2370,34.9300
2.2933,0.0010,-0.1750,1.1790,-1.6030,19.8020,-35.8320,35.0700
2.3054,-0.0090,-0.1590,1.1680,0.5950,20.1070,-35.0840,35.0200
2.3177,-0.0220,-0.1180,1.1860,-4.1070,19.8780,-38.5040,35.0700
2.3245,-0.0040,-0.1270,1.1820,0.5040,18.4270,-32.4730,34.9800
2.3365,0.0140,-0.1200,1.1690,-1.5730,18.5800,-33.4050,34.9300
2.3432,0.0240,-0.0910,1.1620,0.3360,15.8320,-34.0760,35.0700
2.3557,0.0150,-0.1040,1.1430,-0.9310,15.8470,-36.5190,35.0700
2.3678,0.0120,-0.0830,1.1620,0.7020,16.3210,-36.3210,35.0200
2.3748,0.0240,-0.0940,1.1640,0.0460,17.0230,-36.5340,35.0700
2.3866,0.0280,-0.0820,1.1690,-0.1070,19.0530,-36.7330,34.9800
2.3938,0.0160,-0.0830,1.1580,-0.5650,19.2980,-36.7180,34.9300
2.4058,0.0220,-0.1160,1.1530,-0.0460,19.3280,-36.5800,34.9800
2.4127,0.0190,-0.1510,1.1600,0.1680,18.2440,-36.8240,35.0700
2.4252,0.0210,-0.1470,1.1580,-1.1910,18.0760,-34.5650,35.0200
2.4370,0.0220,-0.1310,1.1710,-3.6030,17.0230,-32.8090,35.0700
2.4440,0.0190,-0.1150,1.1590,-2.7630,15.8470,-32.8090,35.0200
2.4559,0.0300,-0.1010,1.1410,-2.6410,15.7100,-33.9850,34.9800
2.4633,0.0300,-0.1070,1.1440,-4.0460,15.4810,-33.5730,34.9800
2.4753,0.0500,-0.1220,1.1630,-3.2370,16.6110,-34.5190,35.0200
2.4873,0.0560,-0.1060,1.1640,-2.8240,16.7790,-36.5800,35.0200
2.4940,0.0560,-0.0910,1.1750,-2.4120,18.3050,-38.7630,34.9800
2.5064,0.0610,-0.0940,1.1660,-2.6260,20.0310,-40.5650,35.0200
2.5133,0.0500,-0.1070,1.1750,-4.7330,20.6560,-40.8090,35.0700
2.5254,0.0350,-0.1240,1.1780,-6.9770,21.7560,-40.2900,35.0700
2.5376,0.0280,-0.1440,1.1780,-5.5270,22.7630,-39.6180,35.0200
2.5442,-0.0040,-0.1750,1.1990,-0.7330,22.5950,-39.8170,35.0200
2.5565,0.0090,-0.1620,1.1820,-4.3210,22.1530,-37.7560,34.9800
2.5633,0.0050,-0.1620,1.1540,-2.1370,20.0610,-38.2750,35.0200
2.5755,0.0000,-0.1750,1.1750,1.6180,20.3970,-37.7860,34.9800
2.5874,0.0020,-0.1600,1.1830,-3.1910,16.7020,-33.2520,35.0700
2.5947,0.0160,-0.1530,1.1510,-3.2520,14.5190,-33.5110,34.9300
2.6065,0.0210,-0.1390,1.1610,-1.9240,15.6490,-34.8850,34.9800
2.6138,0.0390,-0.1210,1.1740,-1.7710,15.6950,-36.0150,34.9800
2.6258,0.0540,-0.1040,1.1740,-3.9240,14.3660,-36.2600,35.0200
2.6379,0.0440,-0.1230,1.1740,-3.4810,16.5190,-35.5570,34.9800
2.6446,0.0620,-0.0960,1.1740,-3.6490,16.9620,-35.8320,35.1700
2.6569,0.0660,-0.1110,1.1790,-1.7400,18.8700,-36.1070,35.0200
2.6635,0.0670,-0.1160,1.1750,-1.5570,19.5270,-37.4500,34.9800
2.6760,0.0710,-0.1100,1.1760,-4.1680,19.2370,-36.6560,34.9800
2.6818,0.0660,-0.1280,1.2060,-5.7710,18.9920,-34.3660,35.0200
2.6948,0.0530,-0.1340,1.1750,-4.4730,19.6790,-37.8470,35.0700
2.7071,0.0640,-0.1290,1.1930,-2.2900,19.3280,-40.7630,35.0200
2.7138,0.0730,-0.1170,1.1930,-0.7630,19.1300,-43.0530,34.9300
2.7262,0.0730,-0.1280,1.1880,0.6720,20.8240,-43.6640,35.0700
2.7333,0.0690,-0.1310,1.1920,-1.3130,22.0150,-40.8550,35.1200
2.7450,0.0630,-0.1460,1.1790,-1.0990,23.0690,-38.8850,35.0200
2.7573,0.0580,-0.1480,1.1590,-0.3050,21.4200,-38.0920,34.9800
2.7642,0.0580,-0.1390,1.1520,0.6260,19.9390,-39.8020,35.0200
2.7766,0.0810,-0.1360,1.1610,-1.0230,17.5730,-40.4580,35.0200
2.7834,0.0830,-0.1200,1.1780,-0.8850,20.2900,-41.4050,34.9800
2.7955,0.0920,-0.0880,1.1770,-1.1760,21.6640,-40.4270,35.0200
2.8077,0.0960,-0.0920,1.1670,-1.4200,23.4960,-41.9850,34.9800
2.8147,0.0660,-0.1040,1.1530,-3.0690,22.9310,-43.7250,34.9800
2.8266,0.0630,-0.1220,1.1560,-1.4500,22.6410,-45.3590,35.0200
2.8335,0.0660,-0.1410,1.1610,-0.4430,21.8170,-46.7630,35.0700
2.8455,0.0610,-0.1490,1.1700,-3.8930,21.3130,-44.8240,34.9800
2.8576,0.0620,-0.1350,1.1770,-4.7940,21.8470,-43.3440,35.1200
2.8647,0.0620,-0.1340,1.1740,-4.9620,21.1600,-43.6640,34.9800
2.8765,0.0620,-0.1390,1.1810,-6.7480,21.4350,-43.5730,35.0200
2.8838,0.0580,-0.1570,1.1780,-4.5340,21.0840,-43.4050,35.0700
2.8956,0.0650,-0.1510,1.2060,-3.2980,21.4050,-44.0460,35.0700
2.9078,0.0710,-0.1460,1.1940,-2.5040,21.5270,-46.2140,35.0200
2.9146,0.0630,-0.1300,1.1780,-0.4120,22.0310,-48.1220,35.0200
2.9267,0.0570,-0.1290,1.1640,0.7940,22.2290,-50.1980,34.9800
2.9340,0.0520,-0.1280,1.1780,0.5950,22.1070,-50.1530,35.0200
2.9461,0.0580,-0.1390,1.1800,1.0840,21.8780,-50.4580,34.9800
2.9527,0.0600,-0.1520,1.1910,0.2900,22.2750,-49.8930,35.0700
2.9652,0.0510,-0.1770,1.1880,-1.3890,22.0760,-48.5800,35.0200
2.9772,0.0480,-0.1710,1.1820,-0.1370,22.4730,-47.5570,34.9300
2.9843,0.0460,-0.1810,1.2290,5.3130,21.5880,-46.2140,35.0700
2.9963,0.0370,-0.1510,1.1470,0.2440,21.2210,-45.1910,35.0200
3.0032,0.0450,-0.1520,1.1660,-4.2440,18.5340,-43.7560,34.9800
3.0157,0.0490,-0.1260,1.1590,-2.7330,19.1910,-43.1300,35.0700
3.0274,0.0530,-0.1050,1.1590,-0.1830,20.4120,-46.3210,35.0200
3.0348,0.0720,-0.0930,1.1530,-3.2520,20.0310,-46.3970,34.9800
3.0466,0.0420,-0.0920,1.1520,-4.0000,21.1600,-45.7710,34.9800
3.0537,0.0260,-0.0980,1.1470,-1.8320,21.3440,-48.3050,35.1200
3.0656,0.0380,-0.1020,1.1570,-0.0150,20.5650,-50.1680,34.9800
3.0778,0.0460,-0.1200,1.1560,-0.1830,20.5800,-50.2750,34.9800
3.0850,0.0570,-0.1190,1.1970,-1.7860,20.5340,-49.6950,35.0200
3.0967,0.0640,-0.1060,1.2000,-2.8700,22.2290,-48.5650,34.9800
3.1037,0.0650,-0.1160,1.2040,-4.7790,22.4580,-50.0150,35.0200
3.1159,0.0610,-0.0960,1.2090,-2.5650,24.8400,-49.8930,35.0200
3.1216,0.0470,-0.1230,1.1920,-4.5650,26.0150,-50.7480,34.9800
3.1349,0.0370,-0.1390,1.1820,-5.9540,24.6110,-49.2980,35.0200
3.1471,0.0180,-0.1580,1.1910,-5.7710,24.5040,-48.9920,35.0200
3.1537,0.0180,-0.1740,1.1870,-4.6110,23.3440,-49.6790,34.9800
3.1662,0.0330,-0.1880,1.1890,-4.7330,22.1830,-47.3280,35.0200
3.1730,0.0380,-0.1900,1.1960,-6.2750,21.6180,-45.2210,34.9300
3.1852,0.0450,-0.1590,1.2020,-2.3820,22.3660,-46.5340,34.9800
3.1970,0.0420,-0.1350,1.1890,-3.5420,22.7180,-45.7100,34.9300
3.2045,0.0360,-0.1010,1.1640,-5.9390,22.4120,-45.1760,35.0700
3.2162,0.0390,-0.0780,1.1550,-1.8470,22.4430,-48.4580,35.0700
3.2233,0.0400,-0.1060,1.1830,1.0080,23.8470,-50.1530,35.1200
3.2353,0.0240,-0.1220,1.1690,-2.0610,26.8090,-48.2140,35.0700
3.2475,0.0040,-0.1490,1.1280,-10.2750,25.6950,-49.8630,34.9800
3.2542,-0.0080,-0.1690,1.1490,-12.0310,23.6340,-49.7100,35.0200
3.2662,0.0040,-0.1480,1.1580,4.3660,20.6110,-48.3360,35.0700
3.2733,0.0240,-0.1800,1.1480,-0.6260,20.6560,-47.5570,34.9800
3.2852,0.0320,-0.1460,1.1750,-5.9080,25.9690,-47.2820,35.0200
3.2972,0.0400,-0.1000,1.1790,-3.1450,24.3510,-46.8850,34.9800
3.3042,0.0360,-0.1050,1.1680,-0.7940,21.8020,-48.1220,35.0200
3.3163,0.0350,-0.1220,1.1760,-3.5420,22.1530,-47.7400,34.9800
3.3235,0.0290,-0.1380,1.1750,-3.7100,23.9850,-47.5270,34.9800
3.3355,0.0040,-0.1480,1.1670,-1.0840,23.3440,-49.3280,34.9300
3.3476,0.0110,-0.1520,1.1550,0.7630,22.7790,-50.2750,35.0200
3.3547,0.0200,-0.1350,1.1490,1.6950,22.2140,-50.3820,35.0700
3.3668,0.0240,-0.1270,1.1600,2.4270,20.5800,-50.7630,35.0200
3.3738,0.0450,-0.1290,1.1720,1.1910,22.7180,-51.0230,34.9800
3.3857,0.0360,-0.1270,1.1720,-1.3440,24.2440,-47.9850,34.9800
3.3929,0.0360,-0.1160,1.1610,-5.2210,24.9010,-46.3820,35.0200
3.4047,0.0210,-0.1300,1.1380,-8.0760,25.4500,-45.2980,34.9800
3.4170,0.0110,-0.1380,1.1490,-8.3510,24.6720,-44.1370,34.9800
3.4239,0.0050,-0.1310,1.1420,-6.3660,23.2210,-46.2440,35.0200
3.4360,0.1070,-0.0920,1.1490,-6.0460,10.7180,-50.1680,34.9800
3.4428,0.0190,-0.1120,1.1450,-2.9620,20.0460,-48.8850,35.0700
3.4552,0.0130,-0.1110,1.1430,-3.6790,20.2600,-49.8780,35.0200
3.4673,0.0140,-0.1110,1.1390,-2.3820,22.1220,-49.8930,35.0700
3.4744,0.0250,-0.1320,1.1510,-2.1370,22.1070,-50.5340,35.1200
3.4863,0.0310,-0.1310,1.1710,-5.1150,17.7860,-50.1980,35.0200
3.4935,0.0230,-0.1170,1.1560,-11.1300,19.3590,-49.0690,34.9800
3.5052,0.0240,-0.1410,1.1740,-14.7940,20.2750,-48.6410,35.0200
3.5173,0.0330,-0.1240,1.1730,-18.6260,20.6720,-44.8400,35.0200
3.5244,0.0070,-0.1280,1.1740,-19.8630,21.5570,-43.1910,35.0700
3.5359,0.0100,-0.1580,1.1790,-23.5570,21.8780,-42.7180,34.9300
3.5428,0.0220,-0.1550,1.1670,-19.1910,22.2900,-38.6720,35.0700
3.5548,0.0130,-0.1720,1.1770,-8.9770,21.6490,-46.3510,35.0700
3.5671,0.0110,-0.1990,1.1680,-6.5650,24.2440,-46.3820,34.9300
3.5741,0.0400,-0.1880,1.2050,-13.7560,22.8550,-50.0000,34.9800
3.5859,0.0380,-0.1360,1.1960,-7.8020,25.0690,-51.9690,34.9800
3.5928,0.0370,-0.1160,1.2080,-3.1450,27.4810,-51.9540,35.0200
3.6051,0.0200,-0.1400,1.1910,-1.6180,27.9540,-53.8020,35.0700
3.6170,-0.0080,-0.1630,1.1650,-0.4430,27.5420,-56.4270,34.9800
3.6240,-0.0230,-0.1950,1.1530,-5.1910,26.7630,-56.0000,34.9800
3.6360,-0.0360,-0.1860,1.1550,-5.2670,23.7710,-54.3050,34.9800
3.6430,-0.0410,-0.1830,1.1610,-0.7330,23.6180,-54.8850,35.0200
3.6549,-0.0310,-0.1560,1.1760,-1.3740,22.5190,-52.9920,35.0200
3.6668,-0.0150,-0.1660,1.1600,-3.2370,21.5570,-51.5570,35.0700
3.6737,-0.0210,-0.1720,1.1390,-4.0760,20.4270,-51.8020,35.0200
3.6858,-0.0230,-0.1990,1.1560,-3.6340,18.4430,-52.0920,35.0700
3.6978,-0.0260,-0.2120,1.1520,-3.9540,16.5190,-50.7940,34.9800
3.7047,-0.0210,-0.1670,1.1480,-3.6340,14.4120,-52.3660,35.0200
3.7165,-0.0030,-0.1240,1.1600,1.7560,14.8850,-53.2060,35.0200
3.7239,0.0090,-0.1410,1.1710,4.7630,14.5650,-52.0000,35.0700
3.7359,0.0070,-0.1480,1.1680,-0.6720,13.6640,-50.1830,35.0200
3.7478,-0.0010,-0.1610,1.1270,-1.2980,13.5570,-50.0760,34.9800
3.7547,0.0520,-0.2400,1.3050,10.3510,19.5110,-50.4430,34.9800
3.7668,0.0220,-0.1060,1.2040,-8.3970,14.4580,-46.7630,35.0200
3.7736,0.0240,-0.0640,1.1650,-5.9240,15.2980,-49.0690,34.9800
3.7856,0.0260,-0.1270,1.1750,-0.4120,18.3050,-52.9160,34.9800
3.7914,0.0240,-0.1470,1.1890,-2.2900,18.5950,-50.1220,35.0200
3.8049,0.0200,-0.1670,1.1810,-5.1910,18.4270,-48.3360,35.0700
3.8171,0.0100,-0.1880,1.1660,-5.0990,20.8090,-47.6030,35.1700
3.8240,0.0180,-0.1870,1.1620,-5.4500,21.2820,-45.3130,35.1200
3.8361,0.0060,-0.1870,1.1630,-8.6720,21.2210,-42.7940,35.0700
3.8429,-0.0010,-0.1740,1.1310,-7.1300,20.6870,-44.6110,34.9800
3.8550,-0.0170,-0.1590,1.1090,-5.8020,18.3970,-47.4500,35.1200
3.8670,-0.0110,-0.1590,1.1140,-3.6790,13.6030,-49.6030,35.0700
3.8740,0.0010,-0.1560,1.1290,-4.6110,9.7560,-52.2140,34.9800
3.8861,0.0360,-0.1250,1.1440,-3.5730,9.0230,-52.6260,35.0200
3.8930,0.0570,-0.1270,1.1750,-0.4430,11.1910,-52.1220,34.9800
3.9052,0.0730,-0.1320,1.1950,-3.8020,14.9160,-50.4890,34.9800
3.9175,0.0650,-0.1370,1.1880,-4.1220,18.0760,-50.0310,34.9300
3.9244,0.0390,-0.1760,1.1680,-3.5880,19.4810,-53.5270,34.9800
3.9362,0.0310,-0.1420,1.1570,-1.4660,18.8240,-55.0990,35.0200
3.9430,0.0360,-0.1540,1.1580,0.7480,18.5040,-55.2820,35.0200
3.9554,0.0500,-0.1460,1.1890,-2.9310,20.2290,-53.3130,34.9800
3.9675,0.0420,-0.1540,1.1820,-5.9080,21.5730,-51.3440,34.9300
3.9746,0.0390,-0.1610,1.2010,-5.1600,23.5730,-51.2670,35.0200
3.9865,0.0310,-0.1600,1.1830,-6.1680,26.2440,-51.0530,34.9800
3.9934,0.0200,-0.1850,1.1770,-3.8780,28.1070,-52.3210,35.1200
