Time,AX,AY,AZ,GX,GY,GZ,T
0.0000,0.1070,-0.1340,1.1840,6.1830,26.9010,-56.1070,34.9300
0.0003,0.1030,-0.1340,1.1770,6.0460,26.7630,-55.5880,35.0200
0.0007,0.1020,-0.1300,1.1730,6.2140,26.3660,-56.8700,34.9800
0.0011,0.1040,-0.1320,1.1700,9.2210,25.2060,-58.6410,34.8400
0.0015,0.1110,-0.1420,1.1620,6.9160,26.1680,-58.3360,34.9800
0.0019,0.1130,-0.1300,1.1710,5.6180,25.5570,-58.6870,34.8800
0.0023,0.1060,-0.0970,1.1670,6.8240,25.0840,-59.0840,34.9300
0.0028,0.1100,-0.1040,1.1700,6.0310,24.5500,-60.5190,34.9800
0.0032,0.1180,-0.1120,1.1750,3.6030,25.2520,-60.5190,34.8800
0.0035,0.1110,-0.1110,1.1680,3.4500,25.2210,-60.4430,34.9300
0.0040,0.1130,-0.1450,1.1750,2.1980,25.4200,-58.2750,34.9800
0.0046,0.1040,-0.1400,1.1670,1.7560,24.8090,-58.8090,34.8800
0.0051,0.0980,-0.1460,1.1500,6.8240,23.1300,-61.7100,34.9300
0.0055,0.1230,-0.1440,1.1630,8.9920,21.2060,-63.6490,34.9800
0.0066,0.1390,-0.1330,1.1860,7.8470,21.4050,-63.6640,35.0200
0.0070,0.1450,-0.0960,1.1960,4.9920,22.8090,-61.4050,35.0200
0.0073,0.1320,-0.0710,1.1750,3.4050,23.8470,-61.3590,34.9800
0.0076,0.1190,-0.0560,1.1500,5.3590,21.8630,-63.5880,35.0200
0.0080,0.1150,-0.0760,1.1350,3.1760,21.2980,-65.4960,35.0200
0.0083,0.1280,-0.1060,1.1530,2.5190,19.7860,-66.4270,34.9800
0.0086,0.1530,-0.1240,1.1620,3.4500,19.9240,-66.7180,34.9300
0.0090,0.1430,-0.1280,1.1510,3.2520,20.3510,-65.6790,34.9300
0.0093,0.1220,-0.1090,1.1560,1.7100,20.7020,-66.2750,34.9800
0.0098,0.1110,-0.0500,1.1460,2.5040,19.5110,-66.8700,35.0200
0.0102,0.1080,-0.0500,1.1480,3.8170,17.6180,-69.4050,34.9300
0.0105,0.1250,-0.0560,1.1560,3.2820,17.4660,-71.4200,34.9800
0.0109,0.1460,-0.0670,1.1670,1.2670,17.9540,-70.2900,34.9300
0.0112,0.1500,-0.0790,1.1510,-2.1370,20.0760,-69.4660,34.8800
0.0116,0.1280,-0.1250,1.1460,-3.2370,20.3210,-70.0460,34.9800
0.0121,0.1200,-0.1140,1.1420,-3.2520,19.8930,-68.7480,34.9300
0.0125,0.1100,-0.1170,1.1250,-6.4890,18.2600,-67.9540,34.8800
0.0128,0.1070,-0.0840,1.1280,-4.3210,16.9920,-69.7400,34.9800
0.0132,0.1160,-0.0610,1.1400,-3.1600,16.5340,-69.5730,34.9300
0.0136,0.1290,-0.0550,1.1430,-3.5880,16.5800,-71.0990,34.9800
0.0144,0.1360,-0.0600,1.1330,-5.6340,17.5570,-72.7790,34.9800
0.0150,0.1450,-0.0820,1.1630,-5.7400,18.7180,-74.0920,34.8800
0.0155,0.1340,-0.1080,1.1430,-4.9160,20.0610,-76.7180,34.9800
0.0160,0.1320,-0.1210,1.1660,-5.0380,21.0690,-75.4200,34.9300
0.0164,0.1230,-0.1320,1.1670,-6.3210,21.1910,-76.5340,34.9300
0.0167,0.1140,-0.1000,1.1930,-7.6340,22.9770,-76.1680,34.9800
0.0170,0.1090,-0.0500,1.2130,-8.8240,25.5730,-73.4350,34.9300
0.0174,0.1050,-0.0490,1.2180,-9.4810,27.7860,-72.2290,34.7900
0.0177,0.0910,-0.0820,1.2380,-8.9770,30.3210,-70.4270,34.9800
0.0180,0.0810,-0.0860,1.2320,-8.8850,31.9240,-69.7100,35.0200
0.0183,0.0620,-0.1290,1.2090,-6.4430,33.0690,-71.2670,35.0700
0.0187,0.0500,-0.1360,1.1930,-4.1070,32.0000,-73.3440,34.9800
0.0190,0.0810,-0.1760,1.2700,0.5800,32.6260,-77.9540,34.9300
0.0194,0.0270,-0.1840,1.1960,0.9010,30.6260,-74.3970,34.9800
0.0199,0.0240,-0.1440,1.1990,0.7630,28.7330,-72.0610,34.9300
0.0202,0.0480,-0.1550,1.1820,6.0460,25.7400,-73.0990,34.9300
0.0205,0.0480,-0.1680,1.1850,7.2060,23.7560,-71.4960,34.9800
0.0209,0.0510,-0.1510,1.1840,3.7400,20.7020,-69.4050,34.9300
0.0212,0.0570,-0.1040,1.1990,3.3440,21.2820,-67.5570,34.9300
0.0215,0.0660,-0.0720,1.1890,2.7790,22.3360,-65.6030,34.8800
0.0218,0.0680,-0.0620,1.1960,-0.8850,23.4350,-63.4810,34.9300
0.0221,0.0590,-0.0650,1.1900,-2.3050,25.2210,-61.2370,34.8800
0.0226,0.0430,-0.0690,1.1670,-2.8850,26.3660,-61.4350,34.9800
0.0231,0.0540,-0.0880,1.1970,-4.5950,27.7250,-60.6870,34.9300
0.0234,0.0420,-0.1100,1.1930,-4.5340,28.5340,-60.7020,34.9800
0.0237,0.0130,-0.1160,1.1600,-2.5340,27.7560,-60.8090,34.9800
0.0240,-0.0020,-0.1280,1.1450,-2.0760,25.3890,-60.6720,34.9800
0.0243,0.0140,-0.1350,1.1500,-2.0150,24.2440,-59.2210,34.8800
0.0245,0.0100,-0.1140,1.1250,-3.3590,22.7330,-58.2440,34.9300
0.0248,-0.0100,-0.1050,1.1170,-2.3360,19.9690,-57.8170,35.0200
0.0251,-0.0080,-0.0980,1.1070,-2.7790,17.7560,-58.9160,34.9800
0.0254,0.0090,-0.0800,1.1250,-3.5570,15.4960,-59.4050,34.9300
0.0257,0.0230,-0.0490,1.1400,-8.3050,15.2370,-57.7710,34.9800
0.0259,0.0410,-0.0380,1.1590,-6.9470,15.4350,-57.6030,34.8800
0.0262,0.0700,-0.0530,1.1830,-8.5500,16.5340,-58.7940,34.9300
0.0265,0.0820,-0.0610,1.2080,-5.7100,20.0760,-62.6260,34.8800
0.0268,0.0920,-0.0640,1.2030,-2.2900,24.3360,-65.5110,34.9800
0.0270,0.0920,-0.0910,1.2190,-4.4580,26.5340,-65.8320,35.0200
0.0273,0.0780,-0.1130,1.2120,-4.1830,30.8400,-65.9540,34.9800
0.0276,0.0420,-0.1350,1.1650,-4.4580,30.7020,-64.5950,34.9300
0.0278,0.0020,-0.1540,1.1540,-4.3820,28.8400,-63.0380,35.0200
0.0281,-0.0040,-0.1520,1.1550,-4.1680,27.0080,-63.1910,34.9800
0.0283,-0.0010,-0.1400,1.1560,-0.8090,25.9390,-63.6950,34.9300
0.0286,-0.0060,-0.0950,1.1650,-1.5730,25.0080,-63.2670,34.9300
0.0288,-0.0180,-0.0830,1.1700,-2.9470,24.8700,-63.5880,34.8800
0.0291,-0.0200,-0.0540,1.1570,-2.4890,25.4200,-63.1450,34.9300
0.0293,-0.0300,-0.0730,1.1500,-2.7630,24.2600,-64.7020,34.9300
0.0296,-0.0160,-0.1010,1.1590,-1.5420,22.3510,-64.0760,34.9800
0.0299,-0.0170,-0.1360,1.1720,-1.9690,21.6490,-63.9850,34.9300
0.0301,-0.0030,-0.1440,1.1840,-3.1910,22.6410,-61.6340,34.9800
0.0304,0.0000,-0.1430,1.1730,-3.6030,24.2140,-60.3820,34.9800
0.0309,-0.0060,-0.1290,1.1770,-2.5650,25.3740,-60.3210,34.9300
0.0313,-0.0250,-0.1090,1.1530,-1.1760,24.2750,-60.3050,34.8800
0.0315,-0.0410,-0.1300,1.1250,-0.6720,21.3890,-58.9470,34.9800
0.0318,-0.0390,-0.1340,1.1320,1.0990,18.3050,-59.6640,34.9300
0.0320,-0.0110,-0.1130,1.1380,1.7400,15.6640,-59.2980,34.8800
0.0323,0.0110,-0.1030,1.1540,1.2210,15.6490,-58.3360,35.0200
0.0325,0.0160,-0.0940,1.1460,-0.2440,17.3740,-56.5650,34.8800
0.0328,0.0140,-0.0790,1.1560,-0.3820,18.0000,-55.2980,34.9800
0.0330,0.0180,-0.0730,1.1640,-2.8850,19.7560,-53.6030,35.0200
0.0332,0.0120,-0.0730,1.1730,-5.2370,20.0310,-53.4050,34.9300
0.0335,0.0100,-0.0780,1.1710,-4.7180,21.4050,-56.2140,34.8800
0.0337,-0.0050,-0.0790,1.1810,-2.5950,22.5190,-57.0530,34.9300
0.0339,-0.0210,-0.1050,1.1660,-3.3890,23.4050,-55.6790,34.8800
0.0342,-0.0370,-0.1580,1.1650,-3.8930,22.3510,-54.6110,34.9800
0.0344,-0.0460,-0.1720,1.1620,-2.2290,20.5040,-54.1530,34.9300
0.0346,-0.0280,-0.1520,1.1730,-1.2980,18.9310,-52.0920,34.9800
0.0349,0.0030,-0.1280,1.1820,-4.1980,19.6340,-48.5040,34.9800
0.0351,0.0200,-0.1170,1.2090,-5.6950,21.3740,-47.0990,35.0200
0.0353,0.0310,-0.1090,1.2160,-4.0920,23.6790,-48.1980,34.8800
0.0355,0.0060,-0.0930,1.1940,-2.5650,25.0530,-48.7480,34.8400
0.0358,-0.0110,-0.0990,1.1730,-1.0230,25.7710,-48.7790,34.9300
0.0360,-0.0250,-0.1320,1.1670,0.0310,25.2820,-48.1980,34.9800
0.0362,-0.0340,-0.1490,1.1680,1.1300,24.4430,-47.6030,34.8400
0.0364,-0.0180,-0.1570,1.1660,-0.9470,24.0460,-44.1830,34.9300
0.0367,-0.0060,-0.1460,1.1690,-6.9620,24.2440,-39.4500,34.9800
0.0369,-0.0160,-0.1070,1.1580,-6.1680,25.1300,-38.3660,34.9300
0.0371,-0.0100,-0.0900,1.1560,-7.7710,24.7180,-36.8090,34.9800
0.0374,-0.0280,-0.0900,1.1450,-6.7480,23.2370,-39.0990,34.8800
0.0376,-0.0250,-0.0820,1.1450,-0.7180,21.5270,-42.1220,34.9300
0.0378,-0.0100,-0.0950,1.1490,-1.5110,18.8850,-41.0530,34.8800
0.0380,0.0270,-0.1000,1.1630,-2.9160,18.1220,-39.5880,34.9800
0.0383,0.0610,-0.1000,1.1760,-2.8850,19.6340,-38.8700,34.8800
0.0385,0.0640,-0.0980,1.1720,-2.3820,21.0840,-38.6260,34.9800
0.0387,0.0690,-0.0950,1.1720,-5.1150,21.8470,-37.0840,34.8400
0.0391,0.0710,-0.1070,1.1810,-6.5650,23.1600,-37.3890,35.0200
0.0393,0.0590,-0.1000,1.1850,-5.8470,24.0150,-36.9920,34.8800
0.0395,0.0650,-0.0790,1.1900,-5.2820,25.6640,-36.9310,35.0200
0.0397,0.0600,-0.0660,1.1870,-6.1530,24.7790,-38.9470,34.9800
0.0399,0.0660,-0.0730,1.1950,-5.0380,26.1070,-40.3050,34.8800
0.0401,0.0550,-0.0890,1.1960,-5.7860,27.0990,-39.5420,34.9300
0.0403,0.0450,-0.1120,1.1990,-5.7560,27.3280,-38.2900,34.8800
0.0405,0.0230,-0.1270,1.1930,-6.2140,27.5570,-35.5110,34.8800
0.0408,0.0260,-0.1430,1.1850,-5.5110,26.8700,-34.7180,34.9300
0.0410,0.0350,-0.1700,1.1930,-2.9010,25.7860,-34.2750,34.9800
0.0412,0.0380,-0.1820,1.1970,-5.0230,25.4500,-33.1910,34.9300
0.0414,0.0400,-0.1900,1.1870,-0.5500,25.0530,-37.0690,34.9300
0.0416,0.0470,-0.1640,1.1850,2.9470,23.8170,-38.6720,34.8800
0.0418,0.0630,-0.1580,1.2110,1.3740,24.0310,-39.4660,35.0200
0.0420,0.0660,-0.1210,1.1900,2.5800,25.1150,-39.8780,34.9300
0.0422,0.0650,-0.1070,1.2080,1.6640,26.4890,-38.3820,34.8800
0.0424,0.0470,-0.0970,1.1910,2.3660,28.1830,-37.8170,34.9300
0.0426,0.0230,-0.1090,1.1850,1.2820,28.0000,-37.9690,34.8800
0.0428,-0.0010,-0.1110,1.1530,0.8400,27.0530,-38.5800,34.9800
0.0430,-0.0180,-0.1420,1.1480,3.6340,24.7330,-39.1300,34.9300
0.0432,0.0010,-0.1560,1.1580,2.1680,22.9310,-37.9850,34.8800
0.0434,0.0120,-0.1330,1.1570,-2.3510,22.9770,-33.2820,34.9800
0.0436,0.0240,-0.1160,1.1660,-7.2820,22.9310,-30.3510,34.8800
0.0438,0.0150,-0.1020,1.1580,-5.7100,23.1760,-30.8400,34.8800
0.0441,0.0010,-0.0990,1.1460,-2.4270,21.4500,-32.6720,34.9300
0.0443,0.0010,-0.1150,1.1460,1.3280,18.9470,-36.2290,35.0200
0.0445,0.0200,-0.1040,1.1600,4.2440,16.4730,-39.4200,34.8800
0.0447,0.0520,-0.1180,1.1620,3.4350,15.5880,-40.3820,34.9300
0.0449,0.0830,-0.1260,1.1910,1.8170,17.2980,-38.7020,34.9800
0.0451,0.1050,-0.1160,1.2000,-0.3510,21.3740,-36.4730,34.9800
0.0452,0.1020,-0.0940,1.2090,-4.8700,24.7940,-34.1370,34.9300
0.0454,0.0750,-0.0770,1.1980,-3.1450,27.2370,-34.8400,34.8800
0.0456,0.0520,-0.0380,1.1760,0.2900,27.3890,-37.8630,34.9800
0.0458,0.0230,-0.0720,1.1850,-0.9310,27.6790,-37.7560,34.9300
0.0460,-0.0080,-0.0980,1.1480,-0.7020,27.4500,-38.8240,34.9800
0.0462,-0.0140,-0.1230,1.1240,0.9470,24.6560,-36.9010,34.8800
0.0466,0.0170,-0.1210,1.1760,-2.9920,18.3210,-44.1220,34.9800
0.0468,0.0170,-0.1460,1.1800,-3.5880,17.0840,-44.1530,34.9300
0.0470,0.0240,-0.1400,1.1830,-0.9920,16.8850,-45.0990,34.7900
0.0472,0.0420,-0.1400,1.1980,-0.1980,17.0990,-45.1300,34.8800
0.0488,0.0490,-0.1360,1.1930,0.0460,17.1600,-45.6340,34.9300
0.0556,0.0500,-0.1290,1.2000,0.3510,17.4350,-44.9620,34.9800
0.0679,0.0370,-0.1180,1.1910,0.7940,17.8020,-45.5880,34.9800
0.0747,0.0510,-0.0970,1.1960,2.6260,18.3510,-45.0690,34.9300
0.0870,0.0500,-0.1010,1.1950,-1.6950,19.2060,-42.8550,34.8800
0.0937,0.0480,-0.0880,1.1880,-1.9240,20.2900,-42.0760,34.9800
0.1060,0.0520,-0.0990,1.1900,-2.1680,21.3740,-42.1830,34.9300
0.1184,0.0430,-0.0720,1.1740,2.5950,22.2750,-45.2060,34.9800
0.1250,0.0320,-0.0690,1.1720,2.7480,21.9850,-45.8020,34.9800
0.1374,0.0270,-0.0710,1.1600,0.8400,21.9690,-47.0380,34.9300
0.1444,0.0220,-0.0810,1.1650,-2.0000,22.2750,-45.9390,34.9800
0.1565,0.0100,-0.0750,1.1670,-0.7630,22.8550,-46.1530,35.0700
0.1686,-0.0010,-0.1040,1.1760,-0.1370,23.0380,-46.9470,34.9300
0.1753,-0.0130,-0.1190,1.1780,-1.3440,22.2900,-47.0380,34.8800
0.1877,-0.0230,-0.1130,1.1650,1.8630,21.4660,-48.3660,34.9800
0.1945,-0.0190,-0.1150,1.1760,1.3130,20.7940,-46.8400,35.0200
0.2069,-0.0190,-0.1180,1.1910,-0.3970,21.0080,-44.2750,34.9800
0.2188,-0.0240,-0.1140,1.1820,-2.3210,20.9920,-41.0080,34.8400
0.2254,-0.0330,-0.1140,1.1730,-2.6110,20.6560,-40.0920,35.0200
0.2375,-0.0100,-0.1090,1.1640,-2.1980,19.7710,-40.7630,34.8800
0.2442,-0.0180,-0.0920,1.1600,-0.2140,17.8320,-43.2670,34.9300
0.2564,-0.0020,-0.0770,1.1760,4.5340,16.1830,-47.9850,34.9300
0.2685,0.0220,-0.0700,1.1860,5.7860,17.1300,-47.2210,34.9800
0.2754,0.0390,-0.1000,1.2060,5.7400,18.9160,-46.6560,34.9300
0.2878,0.0540,-0.1020,1.2030,1.5270,21.9390,-42.3820,34.9300
0.2947,0.0490,-0.1100,1.1930,-0.4580,24.4430,-38.0460,34.8800
0.3067,0.0330,-0.0960,1.1660,-2.7480,25.4050,-36.7330,35.0200
0.3191,0.0220,-0.0730,1.1580,-2.6870,24.1680,-37.3440,34.9300
0.3257,0.0270,-0.0670,1.1590,-2.4580,22.4890,-40.4730,34.8800
0.3382,0.0420,-0.0520,1.1700,-1.0380,21.9080,-42.4580,35.0200
0.3450,0.0380,-0.0610,1.1690,-0.7330,22.6410,-44.5950,34.8800
0.3569,0.0490,-0.1020,1.1880,-2.0150,23.7100,-44.3360,34.9800
0.3629,0.0480,-0.1240,1.2080,-2.3820,26.1680,-40.2750,34.9300
0.3761,0.0310,-0.1520,1.1850,-5.0230,27.4960,-35.3440,34.8800
0.3884,0.0100,-0.1390,1.1790,-4.7330,27.5570,-34.2900,34.8800
0.3954,0.0090,-0.1020,1.1570,-7.0530,26.6720,-32.8550,34.9300
0.4072,-0.0430,-0.0520,1.1550,-2.8400,25.5110,-33.2520,34.9800
0.4140,0.0310,-0.0670,1.1600,-2.3970,23.7400,-33.5570,34.9800
0.4262,-0.0090,-0.0810,1.1540,-1.5420,22.7480,-38.5500,34.9300
0.4383,0.0280,-0.0890,1.1710,0.1070,22.0150,-43.5570,34.9800
0.4453,0.0310,-0.0820,1.1750,2.9310,23.6340,-46.1530,34.9800
0.4573,0.0270,-0.0700,1.1820,3.6640,23.2210,-47.2520,34.9300
0.4643,0.0280,-0.0710,1.1690,-0.9470,23.6030,-47.0080,34.9800
0.4766,0.0170,-0.0860,1.1970,-1.4500,22.9010,-46.2440,34.9800
0.4884,0.0100,-0.1080,1.1670,2.0150,23.1300,-46.2290,35.0200
0.4957,0.0250,-0.1090,1.1660,2.4120,21.5110,-46.3660,34.9800
0.5077,0.0230,-0.1050,1.1730,2.5190,21.6950,-44.8850,34.9800
0.5148,0.0210,-0.0950,1.1630,1.5880,21.8170,-45.2370,34.9800
0.5270,0.0300,-0.0820,1.1720,0.5190,22.3660,-45.6030,34.9800
0.5326,0.0300,-0.0810,1.1900,-1.8780,23.2210,-45.9390,34.9300
0.5462,0.0160,-0.0680,1.1860,-1.4200,24.2750,-45.4810,34.9300
0.5581,0.0000,-0.0820,1.1790,-0.9310,24.4270,-43.4350,34.9800
0.5650,-0.0160,-0.1000,1.1560,-0.1530,23.5880,-44.2750,34.9300
0.5770,-0.0120,-0.1040,1.1510,-0.1220,22.5650,-43.1150,34.9800
0.5830,-0.0210,-0.1020,1.1540,-2.1070,21.8930,-41.2210,34.9800
0.5962,-0.0210,-0.1020,1.1560,-3.8930,20.9310,-40.3050,34.9300
0.6080,-0.0190,-0.0680,1.1780,-2.9010,21.3130,-40.6720,34.9300
0.6147,-0.0160,-0.0520,1.1700,-4.0920,21.2210,-40.3820,34.9800
0.6269,-0.0200,-0.0700,1.1660,-3.2980,20.5040,-41.3890,34.9300
0.6392,-0.0120,-0.0870,1.1690,-2.4730,21.2370,-41.8020,34.9800
0.6460,-0.0170,-0.1100,1.1710,-3.2670,21.0690,-40.2290,34.8800
0.6578,-0.0290,-0.1070,1.1690,-2.5950,21.1450,-40.3360,34.8400
0.6655,-0.0330,-0.0910,1.1620,-1.7100,19.5880,-40.6260,34.8400
0.6767,-0.0280,-0.0680,1.1570,-0.5190,18.7940,-40.7630,34.9800
0.6887,-0.0180,-0.0810,1.1680,-2.4430,18.1830,-39.6790,34.9300
0.6958,-0.0230,-0.0780,1.1560,-3.3890,18.5190,-38.5800,34.9800
0.7073,-0.0360,-0.0880,1.1420,-4.0610,17.8320,-37.9080,34.9800
0.7142,-0.0380,-0.0990,1.1420,-4.1370,16.5650,-38.3820,34.9300
0.7263,-0.0240,-0.1030,1.1440,-2.9920,15.7250,-38.4270,34.9800
0.7385,-0.0200,-0.0940,1.1610,-2.9920,16.1070,-37.1150,34.8800
0.7454,-0.0130,-0.0850,1.1620,-5.1300,17.0840,-36.5800,34.9300
0.7571,-0.0170,-0.0920,1.1760,-2.1530,17.1600,-38.0920,34.9800
0.7640,-0.0150,-0.1020,1.1710,-2.2600,15.7100,-39.6640,34.9800
0.7760,0.0030,-0.1060,1.1630,-1.3590,16.5500,-39.6030,34.9300
0.7883,0.0070,-0.1140,1.1800,-0.8400,17.3280,-39.0230,34.9800
0.7953,0.0160,-0.1170,1.1840,-3.7250,18.1980,-36.8700,34.9800
0.8072,0.0220,-0.1040,1.1830,-4.6110,18.8850,-35.1910,34.9300
0.8143,0.0210,-0.0720,1.1770,-4.1220,19.9390,-36.0310,34.8800
0.8261,0.0260,-0.0600,1.1790,-2.5190,19.8470,-37.2670,35.0200
0.8385,0.0240,-0.0710,1.1780,-2.4270,20.0920,-37.4200,35.0200
0.8455,0.0240,-0.0590,1.1710,-5.5570,20.8240,-36.5800,34.8800
0.8574,0.0030,-0.0990,1.1700,-2.0460,19.7860,-40.0310,34.8400
0.8642,0.0280,-0.0790,1.1820,-3.0230,21.7860,-38.2750,34.9300
0.8764,0.0090,-0.1070,1.1700,-6.3660,22.6410,-35.4810,34.8800
0.8883,-0.0200,-0.1010,1.1660,-5.4810,21.1450,-36.5650,34.9300
0.8956,-0.0010,-0.0870,1.1660,-2.2600,19.3130,-38.9160,34.8400
0.9076,0.0160,-0.0920,1.1890,-3.0990,17.5880,-41.6790,34.8800
0.9142,0.0380,-0.0880,1.2030,-2.5950,18.0610,-43.4500,34.9300
0.9266,0.0200,-0.0970,1.2090,-2.0920,20.6110,-43.0530,35.0200
0.9386,0.0220,-0.1220,1.1870,-3.8780,21.7100,-42.8700,34.9800
0.9457,-0.0050,-0.1340,1.1730,-1.5730,20.2900,-42.6410,34.9300
0.9574,0.0110,-0.1410,1.1780,1.6490,17.4050,-41.9240,34.9800
0.9644,0.0460,-0.0970,1.1970,2.7790,15.0530,-43.6490,34.8800
0.9767,0.1010,-0.0640,1.2250,4.3050,16.5950,-44.3660,34.9300
0.9890,0.1300,-0.0520,1.2330,3.8780,21.0690,-44.4270,34.8800
0.9960,0.1450,-0.0550,1.2560,-2.0460,27.3740,-40.9160,34.9800
1.0080,0.1090,-0.0750,1.2370,-5.6180,32.7330,-37.4960,34.9300
1.0148,0.0530,-0.0800,1.2010,-4.3970,34.9770,-36.8700,34.9800
1.0269,0.0170,-0.0740,1.1720,-4.4890,33.2060,-38.0760,34.9300
1.0323,-0.0020,-0.0990,1.1600,-3.1150,29.8930,-39.5880,34.9300
1.0457,-0.0010,-0.1050,1.1770,-1.0530,26.9920,-40.5800,34.9800
1.0580,0.0010,-0.0860,1.1730,-0.5800,26.2440,-40.2440,34.9300
1.0644,0.0120,-0.0790,1.1810,-0.6560,25.8320,-39.8930,34.9800
1.0768,0.0180,-0.0690,1.1910,-0.4430,25.6950,-40.8550,35.0700
1.0822,-0.0010,-0.0740,1.1830,-0.0920,25.4660,-41.0990,34.9300
1.0958,-0.0040,-0.0740,1.1810,-0.7630,24.3210,-40.7940,34.9800
1.1078,-0.0070,-0.0910,1.1700,-0.8550,23.4500,-40.2440,34.9800
1.1145,-0.0050,-0.1050,1.1880,-0.8700,23.2370,-41.7100,34.9300
1.1267,0.0030,-0.0900,1.1980,-0.5800,23.2980,-40.3210,34.9800
1.1390,-0.0140,-0.1040,1.1940,-1.9540,22.9470,-39.2060,34.8800
1.1457,-0.0150,-0.1130,1.1820,-1.8020,22.7480,-38.5340,34.9300
1.1576,-0.0220,-0.1190,1.1810,-0.2140,21.5730,-38.9770,34.9800
1.1644,-0.0080,-0.1110,1.1930,-0.7330,20.8850,-39.7860,34.9800
1.1767,0.0000,-0.1030,1.1940,-0.1980,21.3440,-39.8630,34.9300
1.1887,0.0000,-0.0900,1.1940,0.6560,22.1680,-39.8780,34.9800
1.1957,-0.0130,-0.0910,1.1730,0.5800,23.5110,-39.1150,34.9300
1.2080,-0.0210,-0.0800,1.1740,-1.3440,23.7100,-37.9540,34.9300
1.2147,-0.0490,-0.0870,1.1590,-1.0990,23.6180,-37.2670,34.9800
1.2268,-0.0710,-0.1020,1.1330,-2.7940,22.9620,-37.8170,35.0200
1.2386,-0.0910,-0.1070,1.1290,-2.5040,21.3740,-37.2370,35.0200
1.2458,-0.0950,-0.1160,1.1190,-2.8700,19.2520,-37.4660,34.9800
1.2577,-0.0880,-0.1240,1.1250,-3.0530,17.6180,-36.6410,34.9300
1.2644,-0.0690,-0.1010,1.1410,-3.8930,16.4430,-35.7400,34.9800
1.2766,-0.0470,-0.0840,1.1510,-3.8780,16.1370,-35.1760,34.9800
1.2885,-0.0310,-0.0790,1.1550,-3.9390,16.3970,-34.3360,34.9300
1.2954,-0.0310,-0.0760,1.1430,-4.0150,17.1150,-33.7400,34.8800
1.3075,-0.0290,-0.0850,1.1470,-4.8700,17.1600,-32.5040,34.9800
1.3142,-0.0240,-0.0840,1.1380,-3.7400,17.1150,-32.0150,34.9300
1.3262,-0.0260,-0.0790,1.1410,-1.8930,15.5730,-33.1150,35.0700
1.3384,-0.0160,-0.0700,1.1420,-0.8550,14.4890,-34.5650,34.9300
1.3453,0.0200,-0.0620,1.1520,-0.3050,12.8090,-35.6790,34.9300
1.3571,0.0450,-0.0100,1.1520,-1.9240,12.5340,-36.6560,34.8800
1.3641,0.0800,-0.0510,1.1770,-0.3970,13.0840,-41.5270,35.0200
1.3763,0.1080,-0.0450,1.2130,-1.7100,16.5500,-40.5950,34.8800
1.3887,0.1010,-0.0640,1.2190,-5.6640,20.8700,-38.1070,34.9800
1.3956,0.0650,-0.0490,1.2020,-8.8550,27.0080,-34.7180,34.9300
1.4076,-0.0060,-0.0630,1.1610,-8.9920,28.0760,-33.3890,34.9300
1.4149,-0.0360,-0.0810,1.1360,-10.2440,27.8630,-33.5110,35.0700
1.4264,-0.0640,-0.0830,1.1160,-7.4350,23.6640,-35.0230,35.0200
1.4382,-0.0760,-0.0870,1.1100,-5.7250,24.2900,-35.6790,34.8800
1.4449,-0.0300,-0.1350,1.1300,-2.1980,20.6560,-38.2140,34.9800
1.4571,0.0040,-0.0910,1.1630,-3.3130,19.9690,-38.3820,34.9300
1.4641,0.0150,-0.0620,1.1490,-4.7330,19.5420,-38.0920,34.8800
1.4761,0.0320,-0.0850,1.1770,-7.2520,19.9850,-38.2600,34.8800
1.4882,0.0260,-0.0720,1.1740,-5.3280,22.7940,-37.7100,34.9300
1.4954,0.0310,-0.0800,1.1800,-5.7860,23.5880,-37.0840,34.8800
1.5073,0.0090,-0.0790,1.1910,-5.1150,23.6950,-37.8320,34.9300
1.5142,-0.0200,-0.1020,1.1770,1.5570,25.7100,-39.5110,34.9300
1.5263,-0.0090,-0.0960,1.1730,1.0530,21.4500,-39.7560,34.9800
1.5385,-0.0090,-0.1310,1.2010,-7.5110,19.8930,-38.6720,35.0200
1.5454,-0.0120,-0.0990,1.1910,-2.0460,20.5190,-37.4960,34.9300
1.5571,0.0020,-0.1100,1.2130,1.6340,19.5270,-40.1220,34.9800
1.5641,0.0270,-0.1260,1.2220,-0.7330,19.3740,-39.6030,34.9300
1.5764,0.0260,-0.0980,1.2180,1.7100,19.5420,-39.4960,34.9800
1.5884,0.0180,-0.1050,1.2090,1.2820,19.6030,-40.9310,34.8800
1.5954,0.0260,-0.0770,1.2150,1.3440,20.7790,-39.4200,35.0200
1.6077,0.0140,-0.0820,1.2270,2.2140,23.0380,-38.2440,34.9800
1.6147,-0.0090,-0.0880,1.2110,0.1070,23.3590,-38.3510,34.9800
1.6268,-0.0320,-0.0840,1.1860,1.9850,23.2520,-37.9240,34.9300
1.6393,-0.0440,-0.0970,1.1670,2.0460,22.0150,-39.0690,34.8800
1.6457,-0.0450,-0.1080,1.1720,2.6260,21.0690,-39.5880,35.0200
1.6580,-0.0470,-0.1270,1.1770,2.0000,20.4580,-37.7250,34.9300
1.6647,-0.0570,-0.1120,1.1730,2.6410,18.7480,-37.1300,34.9800
1.6771,-0.0540,-0.0950,1.1580,2.3970,17.7710,-36.4120,34.8400
1.6825,-0.0310,-0.0760,1.1690,1.8170,16.1680,-37.4500,34.9800
1.6963,-0.0120,-0.0640,1.1760,1.6490,17.2520,-37.0690,35.0700
1.7082,-0.0050,-0.0820,1.1760,0.8400,17.7400,-37.1600,34.9300
1.7149,-0.0050,-0.0590,1.1690,-1.8780,17.8630,-39.2370,34.9800
1.7272,-0.0070,-0.0550,1.1710,0.1830,17.1600,-45.1910,34.8800
1.7340,0.0030,-0.0270,1.1530,0.1830,16.9620,-47.0380,34.9300
1.7464,-0.0030,-0.0470,1.1610,-1.7560,16.9620,-47.4660,34.9800
1.7581,-0.0050,-0.0530,1.1650,-3.3280,17.9540,-45.9850,34.9800
1.7650,-0.0150,-0.0960,1.1760,-2.3510,16.3660,-44.5340,34.9300
1.7770,0.0010,-0.0970,1.1630,-1.3440,18.0460,-42.4430,34.9800
1.7839,0.0070,-0.1100,1.1840,-4.3660,18.7020,-38.3050,34.9800
1.7963,0.0020,-0.0870,1.1800,-5.0840,19.0690,-36.4120,35.0200
1.8082,0.0080,-0.0800,1.1760,-3.9240,19.7710,-35.3740,34.9800
1.8150,0.0170,-0.0820,1.1950,-3.6180,19.9240,-36.3970,34.9300
1.8273,0.0110,-0.0860,1.1830,-3.6490,20.5040,-35.9540,34.9300
1.8342,-0.0040,-0.0930,1.1890,-3.2520,20.6410,-36.2750,34.8800
1.8461,0.0000,-0.0850,1.1850,-0.9920,20.0310,-37.5880,34.9300
1.8582,-0.0100,-0.0830,1.1750,1.7100,19.1600,-37.8930,34.9300
1.8651,0.0000,-0.0870,1.1790,1.4050,18.2290,-38.3660,34.8800
1.8777,-0.0070,-0.0780,1.1800,0.3050,17.2980,-39.1760,35.0200
1.8843,0.0060,-0.0750,1.1820,1.0230,17.4660,-39.5570,34.9800
1.8968,0.0120,-0.0670,1.1830,0.3970,18.5500,-38.2900,34.8800
1.9087,0.0170,-0.0610,1.1810,-1.3130,19.0690,-37.9390,34.9300
1.9155,0.0230,-0.0480,1.1700,-0.0760,19.2670,-39.3130,34.8800
1.9280,0.0200,-0.0580,1.1670,3.0380,18.6110,-41.9390,34.9800
1.9347,0.0470,-0.0540,1.1820,3.8320,18.8550,-44.9470,34.9300
1.9470,0.0500,-0.0590,1.1900,4.7330,20.9310,-45.0080,34.9800
1.9527,0.0370,-0.0690,1.1730,-0.3050,22.9470,-43.2060,34.9300
1.9661,0.0110,-0.0930,1.1640,-1.3590,23.9690,-41.8780,35.0200
1.9784,-0.0200,-0.0930,1.1460,-2.2900,22.5950,-40.4430,34.9800
1.9854,-0.0480,-0.0890,1.1200,-0.4730,20.1530,-40.2600,34.9300
1.9969,-0.0500,-0.1000,1.1050,0.6110,16.0150,-40.2750,34.8800
2.0028,-0.0400,-0.1030,1.1370,-0.4120,12.1220,-39.9690,35.0700
2.0163,-0.0100,-0.0610,1.1450,0.1830,9.9240,-37.0530,34.9300
2.0283,0.0130,-0.0330,1.1560,0.4430,9.0840,-36.8240,34.9300
2.0355,0.0330,-0.0420,1.1690,1.6640,9.6030,-38.8700,34.8800
2.0478,0.0440,-0.0370,1.1750,-0.2140,10.8240,-40.0460,34.9300
2.0543,0.0350,-0.0430,1.1900,0.4270,12.0460,-41.3440,34.9800
2.0664,0.0260,-0.0540,1.1860,0.4120,13.5880,-41.7560,34.8800
2.0788,0.0230,-0.0660,1.1870,-3.8320,14.7480,-40.2440,35.0200
2.0860,0.0250,-0.0540,1.2060,-5.3280,16.6410,-39.3890,34.9800
2.0978,0.0070,-0.0630,1.1900,-4.0920,17.0380,-39.7400,34.8800
2.1048,0.0180,-0.0860,1.1900,-2.6720,17.8630,-40.5650,35.0200
2.1166,0.0090,-0.1060,1.1850,-1.7100,18.5500,-41.1600,34.8800
2.1291,0.0060,-0.1340,1.1870,0.2600,19.1450,-41.5110,34.9800
2.1360,0.0110,-0.1140,1.1820,0.5650,18.9470,-42.0610,34.9300
2.1482,-0.0070,-0.0970,1.1910,0.5650,18.5500,-42.1220,34.9800
2.1550,0.0030,-0.0660,1.1670,2.8090,17.8630,-42.9310,34.9300
2.1673,0.0150,-0.0650,1.1740,6.2750,18.4120,-44.8090,34.9300
2.1745,0.0240,-0.0560,1.1810,8.9010,19.0380,-43.6790,34.9800
2.1866,0.0260,-0.0620,1.1460,3.0380,21.5270,-42.0760,35.0200
2.1987,0.0030,-0.0330,1.1430,11.3740,20.6260,-39.9240,35.0200
2.2056,-0.0020,-0.0570,1.1560,3.1760,20.1830,-41.2370,34.8800
2.2178,-0.0050,-0.0480,1.1640,-7.3740,18.6720,-38.1530,34.9300
2.2243,-0.0300,-0.0440,1.1600,-1.5110,17.6950,-38.6560,34.9800
2.2366,-0.0420,-0.0670,1.1320,-0.9010,15.1910,-37.8020,34.9800
2.2484,-0.0220,-0.0880,1.1370,-0.2440,12.7480,-37.8170,34.9300
2.2555,0.0120,-0.0600,1.1670,-2.7020,10.3210,-37.5880,34.9800
2.2675,0.0660,-0.0310,1.1980,-2.4120,10.0920,-36.4270,34.8800
2.2741,0.0990,-0.0160,1.2190,-3.4500,12.1220,-38.1680,34.9300
2.2863,0.0930,-0.0110,1.2250,-3.1300,14.3360,-41.8930,34.9800
2.2987,0.1000,-0.0290,1.2330,1.5570,17.7400,-44.6410,34.9800
2.3053,0.0880,-0.0710,1.2440,-0.6110,20.3360,-42.6720,34.9800
2.3177,0.0590,-0.0750,1.2280,-5.1600,22.9010,-39.9240,34.8800
2.3248,0.0260,-0.0630,1.2090,-3.2210,23.8630,-38.7940,34.9300
2.3370,0.0280,-0.0710,1.2170,-3.4200,24.8850,-39.9850,34.9300
2.3489,0.0080,-0.0970,1.2030,-3.0080,22.8400,-40.4730,34.9800
2.3559,0.0090,-0.0800,1.2020,-0.4730,21.5420,-40.5190,34.9300
2.3681,0.0130,-0.0910,1.1880,-2.9310,24.0760,-44.9620,34.8800
2.3746,-0.0060,-0.0660,1.1880,-1.3280,21.2210,-41.3890,34.8800
2.3869,-0.0160,-0.0860,1.1750,0.4580,22.1980,-41.9390,34.8400
2.3990,-0.0010,-0.0950,1.1610,-0.3360,20.9920,-43.1760,34.9300
2.4061,-0.0050,-0.0830,1.1610,-3.5880,20.2140,-41.2670,34.8800
2.4178,0.0040,-0.0660,1.1660,-4.1830,19.5420,-39.6790,34.9300
2.4249,0.0180,-0.0620,1.1650,-3.4050,18.9470,-40.3820,34.8800
2.4368,0.0230,-0.0550,1.1630,-4.8400,18.3660,-38.5800,34.9800
2.4490,0.0230,-0.0630,1.1810,-4.8090,19.0840,-38.9160,34.9300
2.4558,0.0190,-0.0540,1.1700,-1.9240,19.2980,-39.6490,34.8800
2.4680,0.0120,-0.0760,1.1820,-0.4580,19.6340,-39.3280,34.8800
2.4749,0.0080,-0.0830,1.1710,-1.9540,19.6790,-40.4580,34.9300
2.4871,0.0090,-0.0820,1.1670,-1.8020,18.4890,-43.2820,34.9800
2.4926,0.0180,-0.0640,1.1730,-1.2370,18.9920,-45.3590,34.9300
2.5061,0.0130,-0.0750,1.1780,-0.3360,19.3280,-47.0230,34.8400
2.5181,0.0310,-0.0700,1.1840,-3.6790,20.5950,-45.0690,34.9800
2.5253,0.0170,-0.0610,1.1790,-2.8850,21.4810,-40.2600,34.9300
2.5374,0.0180,-0.0760,1.1640,-3.5570,21.8630,-40.3970,34.9300
2.5440,0.0010,-0.0530,1.1470,-4.7330,21.2060,-41.5880,34.8800
2.5562,-0.0050,-0.0340,1.1500,-3.2980,18.9920,-40.4890,34.8400
2.5683,-0.0040,-0.0400,1.1370,-2.2750,17.8020,-39.7860,34.8800
2.5749,0.0000,-0.0540,1.1500,-1.1300,16.7480,-39.5570,34.9800
2.5873,0.0230,-0.0690,1.1500,-1.6790,16.5500,-39.2670,34.9300
2.5943,0.0400,-0.0600,1.1580,-4.2750,17.2980,-37.4050,34.9800
2.6063,0.0340,-0.0680,1.1610,-4.7480,17.6790,-37.4500,34.9800
2.6182,0.0340,-0.0560,1.1560,-5.4050,16.8550,-38.1070,34.9300
2.6251,0.0280,-0.0480,1.1670,-5.3130,17.0990,-37.8020,34.9800
2.6374,0.0320,-0.0480,1.1640,-4.9920,17.3590,-37.6030,34.9800
2.6446,0.0210,-0.0530,1.1560,-5.1760,17.4350,-38.1680,34.9300
2.6563,0.0160,-0.0540,1.1510,-3.9540,16.5340,-39.0230,34.9800
2.6685,0.0190,-0.0670,1.1600,-5.5730,15.8320,-38.4430,35.0200
2.6751,0.0260,-0.0880,1.1720,-4.6260,15.1450,-39.4050,34.8800
2.6876,0.0360,-0.0780,1.1830,-3.4500,15.6180,-39.2980,34.9800
2.6942,0.0460,-0.0740,1.1950,-4.7630,16.3510,-38.9160,34.9300
2.7064,0.0400,-0.0660,1.1860,-4.7940,17.2520,-39.0840,34.9300
2.7188,0.0420,-0.0990,1.2060,-3.9390,17.8930,-39.4960,34.8800
2.7255,0.0410,-0.1040,1.2120,-4.5800,18.3970,-39.5570,35.0200
2.7379,0.0240,-0.0900,1.2030,-4.5800,18.9470,-39.5730,34.8800
2.7447,0.0210,-0.0830,1.1860,-3.6950,18.6110,-40.5650,34.9800
2.7567,0.0240,-0.0850,1.1940,-4.5950,18.2440,-39.3280,34.9300
2.7686,0.0230,-0.0730,1.1940,-3.1600,18.2290,-39.2670,34.9300
2.7757,0.0130,-0.0810,1.1980,-0.7630,18.1680,-39.6030,34.9800
2.7878,0.0110,-0.0870,1.1700,-0.2290,17.8020,-39.4500,34.9300
2.7950,0.0170,-0.1030,1.1880,0.8850,17.5730,-39.8930,34.8800
2.8071,0.0080,-0.0950,1.1730,-0.5040,16.7940,-39.0530,34.8800
2.8190,0.0170,-0.0700,1.1600,-2.4580,15.0990,-35.9690,35.0200
2.8262,0.0230,-0.0610,1.1690,-2.0760,14.0460,-36.3820,34.9800
2.8381,0.0390,-0.0470,1.1750,-0.6110,14.2290,-38.1680,35.0700
2.8453,0.0560,-0.0470,1.1880,-1.3440,14.7790,-38.8090,34.9300
2.8570,0.0600,-0.0400,1.1800,-3.1150,15.6640,-38.3210,35.0700
2.8639,0.0510,-0.0380,1.1660,-2.1220,15.6640,-37.9080,34.9800
2.8760,0.0470,-0.0530,1.1580,-0.3660,15.5110,-38.8240,34.9300
2.8883,0.0520,-0.0590,1.1600,-1.4050,14.3050,-39.0990,34.9800
2.8954,0.0540,-0.0360,1.1600,-2.8090,15.1760,-38.5500,34.9800
2.9073,0.0520,-0.0300,1.1580,-3.6180,14.6560,-37.2370,34.9300
2.9141,0.0510,-0.0410,1.1500,-4.1680,14.4120,-37.8470,34.9800
2.9264,0.0450,-0.0400,1.1540,-5.9850,14.7790,-37.1910,34.9800
2.9385,0.0440,-0.0480,1.1520,-7.0990,15.0990,-37.2820,34.8400
2.9455,0.0310,-0.0560,1.1480,-4.9010,14.7940,-38.3050,34.9800
2.9574,0.0410,-0.0730,1.1440,-5.2520,14.1680,-38.1220,34.9300
2.9646,0.0440,-0.0790,1.1520,-4.8550,13.1150,-37.2980,34.9300
2.9764,0.0440,-0.0860,1.1670,-4.5500,12.8090,-37.7100,34.9800
2.9884,0.0480,-0.0860,1.1770,-5.1150,11.6790,-38.4430,34.9300
2.9957,0.0610,-0.0730,1.1770,-2.6410,11.6950,-38.8240,34.9300
3.0074,0.0750,-0.0840,1.1890,-0.7790,11.7710,-39.4200,34.9800
3.0145,0.0840,-0.0710,1.1910,-2.3050,12.3050,-38.2600,34.9300
3.0265,0.0630,-0.0800,1.1900,-1.5110,11.7250,-43.0840,34.8800
3.0387,0.0970,-0.0410,1.2080,-3.4960,14.4120,-41.7250,34.8800
3.0458,0.0980,-0.0410,1.2070,-4.5950,16.3820,-40.1980,34.9300
3.0577,0.0790,-0.0690,1.1980,-3.6950,17.9850,-40.3050,34.9800
3.0645,0.0780,-0.0870,1.1890,-4.0920,18.9010,-39.9540,34.9800
3.0769,0.0780,-0.0870,1.1870,-6.3820,19.2820,-39.4660,34.9300
3.0891,0.0630,-0.0800,1.1770,-4.3050,18.8550,-40.1980,34.9800
3.0961,0.0640,-0.0630,1.1770,-3.1760,18.3210,-39.8020,34.9800
3.1080,0.0680,-0.0560,1.1620,-4.8240,18.0460,-40.7940,34.9300
3.1146,0.0680,-0.0530,1.1760,-5.3280,18.5800,-41.1910,34.9800
3.1272,0.0700,-0.0720,1.1720,-4.2290,18.8700,-41.4960,35.0200
3.1391,0.0620,-0.0930,1.1680,-2.6110,18.5800,-43.0990,34.9300
3.1462,0.0660,-0.1080,1.1700,-3.2060,18.0310,-43.4500,34.8800
3.1579,0.0680,-0.1080,1.1550,-4.1530,18.0310,-45.0840,34.9300
3.1650,0.0500,-0.0930,1.1590,-5.3130,15.8930,-42.6110,34.8800
3.1771,0.0530,-0.0720,1.1480,-6.8090,14.9920,-40.1530,34.8800
3.1843,0.0740,-0.0420,1.1410,-8.3820,14.5800,-38.4430,34.9300
3.1961,0.0790,-0.0490,1.1620,-7.9080,14.8700,-38.4730,34.9800
3.2081,0.0940,-0.0520,1.1620,-6.2900,14.9470,-39.8630,34.8800
3.2153,0.0770,-0.0760,1.1510,-6.6560,14.0150,-40.3050,34.9300
3.2273,0.0680,-0.0840,1.1450,-8.1530,12.2440,-39.9080,34.9800
3.2343,0.0700,-0.0940,1.1670,-7.6180,12.0460,-39.7100,34.9800
3.2465,0.0970,-0.1120,1.1820,-5.3890,11.1300,-40.0000,34.9300
3.2586,0.1110,-0.0990,1.1940,-5.7400,11.8320,-41.1450,34.9800
3.2652,0.1160,-0.1030,1.2010,-4.5800,12.3360,-42.7630,34.8800
3.2776,0.1190,-0.1120,1.2120,-2.0150,13.2060,-44.1680,34.9300
3.2845,0.1230,-0.1250,1.2170,-3.0080,13.6180,-44.2750,34.9800
3.2968,0.1220,-0.1100,1.2290,-3.3740,15.8170,-43.5880,34.9800
3.3085,0.1150,-0.1040,1.2120,-4.0920,16.1530,-42.5950,34.9300
3.3154,0.1140,-0.1070,1.2180,-3.2210,16.7480,-42.1220,34.9800
3.3276,0.1010,-0.0970,1.2180,-2.6720,17.7400,-42.1070,34.9300
3.3345,0.0970,-0.1190,1.2040,-1.4500,17.8170,-42.7180,34.9300
3.3466,0.1050,-0.1270,1.1910,-2.4890,17.9850,-42.1830,34.8800
3.3586,0.1010,-0.1070,1.1750,-2.5040,18.3050,-41.0990,34.9300
3.3654,0.1020,-0.0930,1.1850,-5.0530,17.8780,-40.0610,35.0200
3.3779,0.1050,-0.0840,1.1780,-5.0230,18.0920,-40.9470,34.9800
3.3846,0.1000,-0.0790,1.1900,-3.6180,20.7940,-41.5110,34.9300
3.3969,0.0870,-0.1080,1.1790,-5.9540,20.8090,-41.3440,34.8400
3.4089,0.0650,-0.1100,1.1620,-3.5880,20.3510,-40.9310,34.9800
3.4157,0.0610,-0.1330,1.1700,-3.4810,19.9390,-41.4050,35.0200
3.4282,0.0580,-0.1230,1.1640,-3.2520,18.9470,-41.8020,34.9300
3.4351,0.0720,-0.1060,1.1780,-1.5730,18.9310,-41.3590,34.9800
3.4472,0.0710,-0.1080,1.1780,-1.7100,18.8090,-40.1980,34.9300
3.4591,0.0740,-0.0990,1.1670,-2.2750,18.9620,-39.1760,35.0200
3.4664,0.0620,-0.1020,1.1700,-0.6260,17.1150,-39.3440,34.9800
3.4782,0.0900,-0.1410,1.1890,-2.1680,15.3280,-40.7330,34.9300
3.4852,0.0660,-0.1120,1.1800,-3.7560,20.4890,-38.7020,34.8800
3.4970,0.0880,-0.0920,1.1710,-4.0310,17.6950,-37.4200,34.9800
3.5042,0.0820,-0.0930,1.1800,-1.6950,17.9080,-37.8930,34.9300
3.5162,0.0890,-0.1020,1.1790,-2.3360,18.0000,-38.5500,34.9800
3.5283,0.0930,-0.1000,1.1770,-0.5800,18.3360,-39.3890,34.8800
3.5351,0.0960,-0.1060,1.1830,-0.2600,18.5950,-39.0690,34.9300
3.5472,0.1060,-0.1100,1.1850,-1.9850,19.5110,-38.7330,34.9800
3.5542,0.0980,-0.0950,1.1830,-1.9240,20.1680,-39.0530,34.9800
3.5662,0.0890,-0.1020,1.1690,-0.9920,19.8930,-39.9240,35.0200
3.5785,0.0970,-0.1190,1.1720,-1.4050,19.2670,-39.8780,35.0700
3.5854,0.0940,-0.0930,1.1830,-1.2520,19.2210,-39.1760,34.9300
3.5974,0.0890,-0.0600,1.1800,-3.7560,19.6340,-37.3590,34.8800
3.6045,0.1040,-0.0670,1.1840,-6.4580,20.5040,-36.6410,34.9800
3.6164,0.0900,-0.0810,1.1850,-5.1760,20.9010,-37.1600,34.9300
3.6285,0.0810,-0.0950,1.1770,-3.1450,20.5650,-38.3360,35.0200
3.6358,0.0630,-0.1180,1.1500,-0.8850,18.7630,-38.8850,34.9800
3.6478,0.0770,-0.1420,1.1590,0.1830,17.2060,-40.0310,35.0200
3.6546,0.1090,-0.1390,1.1820,1.1150,16.5650,-39.6340,34.8800
3.6666,0.1200,-0.1120,1.1890,1.2670,17.2980,-38.8240,34.9800
3.6791,0.1290,-0.0820,1.1740,-0.2140,17.4960,-38.2440,34.9300
3.6860,0.1270,-0.0700,1.1670,0.8550,17.7710,-39.4050,34.8400
3.6981,0.1320,-0.0680,1.1830,-0.3820,17.4960,-41.0530,34.9800
3.7053,0.1430,-0.0750,1.1940,-0.5190,19.0840,-41.0380,34.9300
3.7170,0.1460,-0.0620,1.1750,0.1680,22.7790,-41.7400,34.9800
3.7239,0.1300,-0.0780,1.1730,-1.2980,21.4660,-40.7020,34.9800
3.7365,0.1200,-0.1070,1.1640,-2.0310,20.2750,-39.6340,35.0200
3.7482,0.1270,-0.1250,1.1710,-1.3740,19.6340,-40.0920,34.9800
3.7556,0.1390,-0.1140,1.1650,-0.8850,19.4660,-40.1680,34.8800
3.7672,0.1500,-0.1210,1.1670,-0.1370,18.9620,-41.2980,34.9300
3.7742,0.1580,-0.0900,1.1650,-0.9310,19.4200,-41.8320,34.8800
3.7865,0.1560,-0.0500,1.1590,-0.9920,20.3970,-42.0000,34.8800
3.7984,0.1550,-0.0290,1.1500,-1.9240,20.7940,-43.0380,34.9300
3.8054,0.1580,-0.0510,1.1540,-3.1600,21.5730,-44.0610,34.8800
3.8176,0.1680,-0.0730,1.1630,-2.8850,22.8850,-44.0000,34.9800
3.8241,0.1570,-0.0880,1.1640,-5.2210,23.5270,-44.7180,35.0200
3.8367,0.1480,-0.0980,1.1480,-6.1830,22.7790,-44.5800,34.9800
3.8488,0.1510,-0.0920,1.1610,-6.6720,21.7710,-45.5110,34.8800
3.8556,0.1530,-0.0780,1.1620,-4.4430,21.8780,-46.5950,35.0200
3.8677,0.1710,-0.0860,1.1570,-6.3970,21.4350,-47.3280,34.8800
3.8744,0.1770,-0.0820,1.1730,-8.3820,23.6030,-47.7860,34.9300
3.8869,0.1830,-0.0890,1.1700,-9.3740,24.5340,-47.3130,34.9300
3.8987,0.1710,-0.0960,1.1540,-9.9390,25.4810,-46.6870,34.9800
3.9090,0.1460,-0.1020,1.1430,-11.3890,25.8470,-47.5730,34.9300
3.9177,0.1580,-0.1000,1.1640,-10.6260,24.1220,-48.8700,34.8400
3.9245,0.1730,-0.1000,1.1710,-9.7400,24.5190,-49.7860,34.9800
3.9370,0.1960,-0.1040,1.1860,-10.9310,25.0840,-50.6110,34.9300
3.9486,0.2030,-0.1200,1.1870,-12.0460,27.8630,-49.9690,34.9800
3.9557,0.2110,-0.1350,1.1970,-15.8630,30.7480,-48.7480,35.0700
3.9675,0.1940,-0.1410,1.1800,-14.2140,31.4960,-49.8780,34.9300
3.9742,0.1670,-0.1660,1.1750,-8.4730,31.0080,-53.1150,34.8800
3.9867,0.1610,-0.1860,1.1740,-7.6640,29.8930,-55.4810,34.9800
3.9987,0.1560,-0.1870,1.1900,-6.5650,29.2820,-56.0760,35.0200
