Time,AX,AY,AZ,GX,GY,GZ,T
0.0000,0.0440,-0.1960,1.1820,3.3890,19.0840,-67.8170,34.8800
0.0004,0.0510,-0.2070,1.1680,8.3210,15.3130,-70.3820,34.9300
0.0008,0.0560,-0.1990,1.1810,19.5880,12.6110,-73.1300,34.9300
0.0013,0.0670,-0.1980,1.1670,7.7100,10.1220,-73.4200,34.9800
0.0018,0.0810,-0.1720,1.1940,6.0920,9.8170,-69.9540,34.9300
0.0022,0.0810,-0.1160,1.2030,7.8470,11.9540,-69.4660,34.9800
0.0026,0.0980,-0.0960,1.2190,6.6870,14.1370,-67.6640,34.8800
0.0030,0.1160,-0.0900,1.2150,-0.8850,17.3590,-63.9690,34.8400
0.0035,0.0980,-0.1160,1.2090,-1.2210,19.9390,-62.9310,35.0200
0.0039,0.0890,-0.1390,1.1910,-1.5730,21.9080,-62.8090,34.9800
0.0045,0.0590,-0.1560,1.1660,-1.6180,21.2820,-63.6180,34.9300
0.0050,0.0210,-0.1730,1.1400,1.5110,17.3890,-65.9080,34.9800
0.0054,0.0230,-0.1690,1.1130,0.9160,15.2370,-65.0690,34.8800
0.0058,0.0170,-0.1670,1.1340,-0.0150,13.4200,-63.7560,34.9300
0.0062,0.0390,-0.1480,1.1230,0.7630,12.7940,-63.5270,34.9800
0.0066,0.0510,-0.1200,1.1220,2.0310,12.6410,-62.6260,34.8800
0.0070,0.0580,-0.1110,1.1170,0.6720,10.9160,-60.8400,34.9300
0.0074,0.0740,-0.1110,1.1120,1.5270,9.6030,-61.5270,34.9800
0.0077,0.0810,-0.1010,1.1050,3.8780,8.2900,-61.5730,34.8800
0.0081,0.0990,-0.1050,1.1120,4.4890,6.9470,-61.7560,34.9300
0.0084,0.1260,-0.0980,1.1340,3.0230,7.5880,-60.2140,34.8800
0.0089,0.1410,-0.0710,1.1580,0.4730,9.5420,-58.7940,34.9800
0.0092,0.1580,-0.0570,1.1760,-3.1150,12.6260,-57.5570,34.9300
0.0101,0.1480,-0.0600,1.1670,-5.0690,15.2670,-58.8700,34.9800
0.0105,0.1300,-0.0750,1.1660,-2.2290,16.6410,-61.0230,34.9800
0.0109,0.1140,-0.1150,1.1560,-1.1150,16.9010,-61.4050,34.9300
0.0113,0.1030,-0.1260,1.1500,-1.0230,16.7330,-61.4200,34.8800
0.0116,0.1140,-0.1350,1.1650,-1.3440,16.7940,-60.1980,34.9300
0.0120,0.1260,-0.1540,1.1730,0.7480,18.1370,-57.4500,34.9300
0.0123,0.1190,-0.1670,1.1760,1.2670,20.0920,-54.7940,34.8800
0.0128,0.1120,-0.1250,1.1750,2.3050,20.9160,-51.6340,34.9300
0.0131,0.1250,-0.0920,1.1770,1.0690,23.3440,-48.6720,34.9300
0.0135,0.1310,-0.0690,1.1630,-0.9310,24.7940,-48.3970,34.8800
0.0139,0.1330,-0.0420,1.1740,0.1530,25.6030,-49.9540,34.9300
0.0143,0.1370,-0.0380,1.1660,2.5950,28.2900,-49.4660,34.9300
0.0147,0.1390,-0.0320,1.1670,-4.1220,29.3130,-47.4050,34.9800
0.0156,0.1380,0.0120,1.1800,-2.1680,34.0610,-45.8470,35.0200
0.0160,0.1460,0.0020,1.1630,-7.3740,35.1600,-47.7400,34.9800
0.0164,0.1310,-0.0290,1.2030,-15.7250,38.1220,-48.8850,34.8800
0.0167,0.1010,-0.0670,1.1930,-13.8170,41.0380,-48.2290,34.9300
0.0171,0.0750,-0.1210,1.1920,-15.6950,42.7330,-47.4810,34.9800
0.0174,0.0310,-0.1510,1.1730,-13.8470,41.4350,-47.0080,35.0700
0.0179,-0.0050,-0.1910,1.1710,-10.0920,38.1370,-45.3890,35.0200
0.0183,-0.0010,-0.2190,1.1690,-10.3050,34.3360,-43.1760,34.9800
0.0186,0.0100,-0.2210,1.1810,-9.3440,30.7480,-41.7860,34.8800
0.0189,0.0220,-0.2030,1.1810,-4.7940,28.5340,-40.8700,34.9300
0.0193,0.0230,-0.1670,1.1500,-1.9240,26.4730,-41.2520,34.9800
0.0196,0.0320,-0.1430,1.1490,-3.5110,23.9240,-42.2290,35.0200
0.0201,0.0390,-0.1390,1.1540,-2.6720,21.8930,-41.4050,34.9800
0.0206,0.0380,-0.1510,1.1400,0.9010,19.9240,-42.2290,34.9800
0.0209,0.0620,-0.1530,1.1510,-1.1910,18.0760,-40.6110,34.9300
0.0212,0.0770,-0.1350,1.1600,-1.1910,17.7710,-41.3740,34.9300
0.0216,0.1000,-0.1280,1.1830,-1.3590,17.8630,-41.1760,34.8800
0.0219,0.1070,-0.1600,1.1910,-1.5270,18.8240,-39.3280,34.9300
0.0222,0.1110,-0.1640,1.1980,-3.3590,21.0990,-39.0690,34.9800
0.0225,0.0970,-0.1320,1.1630,-3.4960,21.3890,-37.9540,34.8800
0.0228,0.0820,-0.1250,1.1580,-2.1830,20.0150,-36.3210,35.0200
0.0231,0.0860,-0.1220,1.1470,-0.1980,17.8470,-37.3440,34.8800
0.0233,0.1140,-0.1310,1.1640,2.2140,16.1220,-36.2900,34.8800
0.0236,0.1260,-0.1400,1.1770,2.5500,16.9920,-38.5950,34.8400
0.0239,0.1330,-0.1250,1.1950,-0.2290,19.4050,-35.8470,34.8800
0.0242,0.1260,-0.1030,1.1800,-4.1530,21.3740,-33.8020,34.8800
0.0244,0.1110,-0.1250,1.1840,-3.7560,20.5340,-35.3740,35.0200
0.0247,0.1050,-0.1220,1.1670,-0.6260,19.6950,-38.6110,34.8800
0.0250,0.1260,-0.1330,1.1940,1.4200,18.7630,-37.7710,34.9300
0.0253,0.1450,-0.1340,1.1950,0.0150,19.7560,-36.1530,34.9300
0.0262,0.1480,-0.1230,1.2140,-0.3050,21.8320,-35.0990,34.8800
0.0265,0.1500,-0.1040,1.1930,-1.4050,21.7250,-35.4810,34.9300
0.0267,0.1470,-0.1140,1.1900,-1.4350,22.4730,-37.4200,35.0200
0.0270,0.1360,-0.1100,1.1840,0.2600,22.7180,-38.0920,34.8800
0.0273,0.1280,-0.1180,1.1840,-1.1150,23.0840,-36.1070,35.0200
0.0275,0.1200,-0.0980,1.1530,-1.9080,22.0150,-35.2820,35.0200
0.0278,0.1310,-0.0980,1.1630,-1.6490,20.1220,-35.5730,34.9800
0.0281,0.1380,-0.0870,1.1630,-0.5950,20.2750,-37.4350,34.9300
0.0284,0.1570,-0.0950,1.1700,0.3970,21.0380,-37.2980,34.9800
0.0286,0.1590,-0.0810,1.1690,-1.2980,21.8630,-37.4200,34.8800
0.0289,0.1650,-0.0850,1.1680,-2.2750,22.5190,-37.6030,34.9300
0.0291,0.1550,-0.1040,1.1750,-3.3130,24.1680,-39.7400,34.9800
0.0294,0.1470,-0.1040,1.1700,-2.7020,24.6560,-40.9770,34.9800
0.0297,0.1390,-0.1090,1.1800,-0.9470,24.7020,-42.2750,35.0200
0.0300,0.1270,-0.1430,1.1640,1.8170,23.9850,-43.4050,34.9800
0.0303,0.1320,-0.1430,1.1860,4.4580,25.5730,-39.2670,34.9800
0.0306,0.1330,-0.1510,1.1770,-5.7100,26.2900,-30.4890,35.0200
0.0308,0.1290,-0.1300,1.1830,-7.0840,27.8780,-27.0990,34.8800
0.0311,0.0940,-0.0760,1.1620,-2.7330,30.0920,-24.6870,34.9800
0.0313,0.1080,-0.0990,1.1600,-5.1450,27.8470,-31.4810,34.9800
0.0316,0.1010,-0.0870,1.1580,-6.7180,27.1150,-34.8550,34.8800
0.0318,0.0960,-0.1160,1.1790,-1.0990,28.9310,-34.1370,34.9300
0.0321,0.1120,-0.1530,1.1780,-8.3970,29.6340,-31.7860,34.9300
0.0323,0.0760,-0.1570,1.1560,-6.0760,28.4730,-32.9310,34.9800
0.0326,0.0930,-0.1500,1.1590,-0.5500,24.9470,-36.5340,35.0200
0.0328,0.0940,-0.1440,1.1870,3.0080,24.0150,-39.9240,34.9800
0.0331,0.1080,-0.1200,1.1630,6.1220,22.3210,-41.5420,34.8800
0.0333,0.1350,-0.1330,1.1980,3.1600,22.3820,-40.8400,34.9300
0.0336,0.1420,-0.1300,1.1780,-0.4580,23.4200,-37.2980,35.0200
0.0338,0.1350,-0.1340,1.1820,-0.1830,24.7940,-36.8550,34.9800
0.0342,0.1130,-0.1240,1.1650,-2.4730,23.8470,-30.7790,34.9300
0.0345,0.1140,-0.1040,1.1580,-3.4050,24.5340,-29.5730,34.9800
0.0347,0.0970,-0.0830,1.1580,-2.5500,23.9080,-28.7330,34.9800
0.0349,0.0840,-0.0860,1.1450,-2.6410,21.2210,-33.5880,34.9300
0.0351,0.1030,-0.0900,1.1480,-2.7940,20.0310,-36.1830,34.8800
0.0354,0.1110,-0.0860,1.1540,-0.0460,19.4200,-39.6950,34.9800
0.0356,0.1230,-0.0790,1.1830,3.1760,20.2440,-40.2750,34.9300
0.0358,0.1290,-0.0800,1.1570,-4.0760,20.3210,-41.6950,34.9800
0.0360,0.1160,-0.0950,1.1770,-3.8780,19.7400,-44.3360,34.9800
0.0363,0.1190,-0.1160,1.1850,-0.2140,20.0610,-47.2210,35.0200
0.0365,0.1170,-0.1440,1.1960,3.3440,20.3050,-48.6110,34.9800
0.0367,0.1160,-0.1620,1.1990,0.4430,21.9850,-45.4350,34.9300
0.0369,0.0990,-0.1480,1.1890,-2.8550,23.1760,-41.2210,34.9300
0.0372,0.0950,-0.1490,1.1770,-3.1600,23.1910,-39.7560,34.9800
0.0374,0.1050,-0.1660,1.1940,-1.1150,22.5500,-39.9850,34.9300
0.0376,0.1000,-0.1230,1.1780,-1.7710,23.2060,-38.4890,35.0200
0.0379,0.0970,-0.1140,1.1630,0.7330,22.2440,-38.6110,34.9800
0.0381,0.1080,-0.0690,1.1500,-1.0990,21.3280,-41.8320,35.0200
0.0383,0.1160,-0.0780,1.1570,1.0380,20.2140,-45.3740,34.9300
0.0385,0.1340,-0.0990,1.1850,0.6410,20.9920,-45.4050,34.9800
0.0387,0.1250,-0.1210,1.1840,-1.7560,22.3360,-43.4810,35.0200
0.0390,0.1120,-0.1110,1.1770,-1.7710,23.2060,-44.4120,34.9800
0.0392,0.0960,-0.1050,1.1740,-0.6110,23.2520,-45.1450,34.9800
0.0394,0.0920,-0.1230,1.1680,2.1370,21.5880,-47.1300,34.8400
0.0396,0.0840,-0.1480,1.1710,4.1370,20.4270,-46.7480,34.8800
0.0399,0.0960,-0.1480,1.1820,2.9920,20.9310,-44.6410,34.9800
0.0401,0.1050,-0.1440,1.1770,-0.3970,21.6790,-41.4810,34.8400
0.0403,0.0960,-0.1160,1.1630,-2.9470,22.1980,-40.4580,34.9800
0.0405,0.0960,-0.0970,1.1620,-4.3660,21.9390,-40.0610,34.9800
0.0407,0.0960,-0.0990,1.1690,-2.0310,21.4350,-42.6720,34.9300
0.0409,0.0960,-0.0890,1.1690,1.2820,21.2520,-43.7560,34.9800
0.0411,0.0960,-0.0990,1.1590,-1.7400,21.1450,-42.0920,34.9800
0.0413,0.0920,-0.0970,1.1510,-2.5500,20.6870,-42.5040,34.9800
0.0415,0.1040,-0.1020,1.1570,-2.9310,20.5040,-43.0380,34.9800
0.0417,0.1090,-0.0930,1.1640,-0.9010,21.3890,-43.6640,34.9300
0.0419,0.1050,-0.1070,1.1620,-0.1070,21.1450,-46.7180,34.9300
0.0421,0.0900,-0.1250,1.1450,-1.9390,21.0690,-44.9770,34.8800
0.0423,0.0850,-0.1220,1.1670,-2.4120,20.7020,-43.3280,35.0200
0.0425,0.0930,-0.1240,1.1610,-3.5730,20.1980,-43.2520,35.0700
0.0429,0.0920,-0.0810,1.1500,-2.3510,19.4350,-44.1830,34.9800
0.0431,0.0940,-0.0710,1.1400,0.1830,18.1980,-44.6560,34.8400
0.0433,0.1020,-0.1150,1.1600,-3.0690,18.2140,-43.7860,34.9300
0.0435,0.1060,-0.1000,1.1740,-5.5420,19.3280,-41.6180,34.9800
0.0437,0.1020,-0.0900,1.1670,-5.5270,19.4200,-41.6950,35.0200
0.0440,0.0890,-0.0750,1.1540,-4.2900,18.9010,-43.2060,34.9800
0.0442,0.1150,-0.0950,1.1740,-4.1220,18.9620,-44.7790,34.9800
0.0444,0.1260,-0.1200,1.1920,-1.2820,19.5110,-47.4050,34.9300
0.0446,0.1280,-0.1290,1.2050,1.8170,21.1450,-49.4810,34.9300
0.0448,0.1170,-0.1290,1.1910,-2.1370,22.8850,-48.2140,34.9800
0.0450,0.1040,-0.1380,1.2030,-3.9540,22.1980,-45.0080,35.0200
0.0452,0.1030,-0.1100,1.1860,-1.5420,22.8240,-45.0530,34.9800
0.0454,0.0890,-0.1140,1.1820,-2.1220,22.1830,-48.2600,34.9800
0.0456,0.0990,-0.1090,1.1950,1.5570,22.7630,-50.5800,34.9300
0.0458,0.1060,-0.1010,1.2010,3.7560,23.8780,-53.0840,35.0200
0.0460,0.1060,-0.1220,1.1950,0.6410,25.2980,-56.6870,35.0700
0.0462,0.0830,-0.0920,1.1940,3.8020,25.2980,-57.2670,34.9300
0.0464,0.0730,-0.1150,1.1840,-1.5570,23.8630,-46.9920,34.9800
0.0465,0.0880,-0.1350,1.1920,-4.8850,23.0840,-44.8400,34.9800
0.0467,0.0940,-0.1260,1.1990,-0.3970,22.4120,-48.0150,35.0200
0.0472,0.1200,-0.1020,1.1700,2.5800,20.5650,-46.8850,34.8800
0.0474,0.1310,-0.1070,1.1780,4.3510,21.6180,-48.7940,34.8800
0.0476,0.1330,-0.0930,1.1810,4.0000,22.9160,-48.2600,35.0200
0.0477,0.1230,-0.1140,1.1950,-0.2600,24.0000,-46.4730,34.9300
0.0487,0.1050,-0.1030,1.1790,-1.5880,25.2520,-46.0150,34.9800
0.0542,0.1010,-0.1040,1.1970,-3.4660,25.9690,-44.7940,34.9300
0.0678,0.0870,-0.0990,1.1880,-2.4270,26.8240,-45.2980,34.9800
0.0799,0.0680,-0.1170,1.1890,-1.0990,27.5110,-44.3970,34.9800
0.0866,0.0500,-0.1320,1.1750,-0.7330,27.3440,-45.2210,34.9300
0.0990,0.0400,-0.1470,1.1820,-0.7020,25.9390,-45.6030,34.9800
0.1057,0.0220,-0.1430,1.1730,2.1830,24.5950,-45.8780,34.8800
0.1179,0.0310,-0.1460,1.1740,2.4730,24.6560,-46.3210,34.9300
0.1303,0.0460,-0.1270,1.1670,1.9390,23.2820,-42.2750,34.9800
0.1373,0.0450,-0.1060,1.1670,0.9920,22.9310,-39.6640,34.9800
0.1495,0.0400,-0.0760,1.1510,-0.6560,22.5650,-39.4500,34.9300
0.1563,0.0430,-0.0300,1.1480,0.8400,22.0610,-40.1220,34.8800
0.1684,0.0410,-0.0280,1.1420,0.9620,21.2820,-42.4270,34.9300
0.1809,0.0450,-0.0360,1.1330,1.5420,21.2210,-43.8630,35.0200
0.1879,0.0500,-0.0700,1.1340,1.0230,20.7330,-45.5270,34.9800
0.2001,0.0530,-0.0900,1.1440,-2.3820,22.4120,-44.4580,35.0200
0.2069,0.0390,-0.0860,1.1400,-4.9920,23.5270,-42.1980,34.9300
0.2191,0.0270,-0.0660,1.1290,-4.4270,23.6030,-43.3440,34.9800
0.2260,0.0180,-0.0570,1.1110,1.0530,21.0380,-48.0000,34.9300
0.2380,0.0190,-0.0790,1.1210,2.3050,19.5110,-49.6340,34.8800
0.2503,0.0390,-0.0980,1.1340,-0.0920,18.1530,-45.9540,35.0700
0.2572,0.0520,-0.0880,1.1570,-2.1220,17.4050,-40.0000,34.9300
0.2692,0.0740,-0.0850,1.1600,-5.8630,16.7940,-36.5800,34.9800
0.2762,0.0880,-0.0800,1.1730,-6.9470,16.7020,-36.3050,34.8800
0.2885,0.1030,-0.0710,1.1850,-3.6180,17.4050,-37.0840,34.9300
0.3007,0.1220,-0.1050,1.2020,-2.9770,19.0990,-38.0000,34.9800
0.3075,0.1260,-0.0780,1.2050,-3.9240,21.7710,-36.0920,35.0700
0.3197,0.1240,-0.0680,1.1990,-5.4660,23.5270,-32.9160,34.9800
0.3265,0.1150,-0.0570,1.1960,-5.3890,24.2440,-34.7630,34.8800
0.3388,0.1080,-0.0510,1.1890,-2.4270,24.2290,-37.0080,34.9300
0.3506,0.1180,-0.0840,1.2050,-2.4890,24.4730,-38.0000,34.9300
0.3578,0.1180,-0.1080,1.2020,-4.1070,25.9240,-38.0150,34.9800
0.3696,0.1070,-0.1130,1.2090,-5.2210,28.1830,-37.0230,34.9300
0.3766,0.0890,-0.1290,1.2030,-4.8700,29.0380,-35.6180,34.8800
0.3886,0.0700,-0.1190,1.1730,-4.0760,28.1680,-35.5110,34.8800
0.4010,0.0620,-0.1240,1.1530,-0.4120,25.4660,-35.1300,35.0200
0.4078,0.0770,-0.1150,1.1670,-1.6490,23.0690,-33.0840,35.0200
0.4199,0.1010,-0.1040,1.1800,-3.3280,22.0460,-31.7250,34.9800
0.4268,0.1270,-0.0950,1.1880,-6.0920,22.8400,-30.9920,35.0200
0.4390,0.1400,-0.0580,1.1960,-4.2140,24.4890,-31.7860,34.8800
0.4446,0.1450,-0.0560,1.1880,-4.6870,26.2290,-31.6030,34.9800
0.4581,0.1270,-0.0810,1.1850,-5.0690,26.9770,-32.9770,34.9300
0.4701,0.1080,-0.0990,1.1880,-3.7250,26.4270,-35.4500,35.0700
0.4769,0.1130,-0.0870,1.1930,-4.6410,26.8400,-35.0080,34.9800
0.4893,0.1000,-0.0870,1.1660,-4.0000,26.2140,-34.9310,35.0200
0.4958,0.0960,-0.0900,1.1830,-4.7790,25.9850,-35.5880,34.9800
0.5083,0.0880,-0.0920,1.1740,-4.2750,25.4500,-36.0150,35.0700
0.5202,0.0870,-0.0880,1.1830,-4.8240,25.0840,-36.2140,34.9300
0.5271,0.0700,-0.0860,1.1730,-5.4500,26.2290,-34.5800,34.9800
0.5391,0.0620,-0.1040,1.1840,-8.5950,24.4120,-35.2060,35.0700
0.5460,0.0620,-0.1080,1.1700,-6.4430,22.5800,-36.7630,34.9300
0.5581,0.0650,-0.1000,1.1630,-2.2290,22.0760,-36.9310,35.0700
0.5702,0.0590,-0.1200,1.1720,-2.1980,20.2600,-36.8400,34.8800
0.5769,0.0780,-0.1070,1.1920,-1.7250,19.4350,-37.3130,35.0200
0.5895,0.0890,-0.1080,1.1930,-3.8020,19.6030,-36.1980,34.9800
0.5962,0.1000,-0.0760,1.1920,-3.0840,20.3360,-36.5040,34.9800
0.6085,0.1080,-0.0900,1.1900,-3.3440,21.4200,-36.5500,35.0200
0.6205,0.0910,-0.0940,1.1750,-3.4660,21.6180,-36.7940,34.9800
0.6273,0.0850,-0.1050,1.1850,-1.9690,22.8700,-37.3440,34.9800
0.6397,0.0670,-0.1100,1.1730,-2.8400,22.3970,-37.7400,35.0200
0.6464,0.0590,-0.1090,1.1870,-2.3510,23.4960,-37.6950,34.9800
0.6587,0.0440,-0.1050,1.1630,-3.0530,24.3660,-37.2060,34.9300
0.6705,0.0310,-0.1250,1.1630,-0.9010,23.3740,-36.3360,35.0200
0.6776,0.0130,-0.1330,1.1540,-1.2370,22.5800,-35.9690,34.9800
0.6897,0.0050,-0.1350,1.1510,-0.8090,20.3360,-35.0080,34.9300
0.6969,0.0280,-0.1230,1.1510,-2.1680,18.2900,-33.6950,34.9300
0.7087,0.0480,-0.1190,1.1590,-3.2210,17.3890,-33.1450,34.9800
0.7209,0.0740,-0.1000,1.1640,-2.2900,17.3280,-33.7400,35.0200
0.7276,0.0820,-0.0760,1.1770,-2.5190,18.5950,-34.3210,35.0200
0.7399,0.0880,-0.0850,1.1620,-4.0920,17.9850,-35.4200,34.8800
0.7468,0.1020,-0.0830,1.1810,-2.3970,18.2140,-37.3440,34.9300
0.7590,0.1030,-0.0740,1.1800,-0.2900,19.1300,-37.5570,35.0200
0.7648,0.1040,-0.0680,1.1850,-1.7100,19.9690,-35.8170,34.8800
0.7780,0.1020,-0.0740,1.1910,-3.2370,21.3890,-34.9770,35.0200
0.7902,0.0900,-0.0970,1.1760,-3.7100,21.7560,-35.6180,34.9800
0.7977,0.0800,-0.0970,1.1880,-1.7100,21.9390,-37.2820,34.9800
0.8093,0.0730,-0.1120,1.1670,-3.0380,21.0080,-36.4890,34.9300
0.8161,0.0740,-0.1140,1.1840,-5.1150,20.6560,-36.4890,34.8800
0.8281,0.0810,-0.1080,1.1870,-3.0840,21.4050,-37.9850,34.9800
0.8402,0.0810,-0.1160,1.1910,-2.0460,21.2060,-38.7180,34.8400
0.8474,0.0660,-0.1200,1.1870,-2.8090,22.1220,-37.3130,34.9800
0.8590,0.0640,-0.1180,1.1670,-1.7100,23.0380,-35.7100,34.9800
0.8664,0.0580,-0.1320,1.1590,-2.2900,21.7400,-34.8400,34.8800
0.8783,0.0580,-0.1090,1.1740,-3.8320,20.9010,-34.8240,34.9800
0.8904,0.0830,-0.0880,1.1840,-4.9160,22.0000,-34.5800,34.9300
0.8972,0.0940,-0.0860,1.1830,-4.2750,24.0460,-36.1220,34.9300
0.9093,0.0840,-0.0890,1.1830,-1.6950,25.3590,-37.3440,34.9800
0.9161,0.0610,-0.1090,1.1780,-1.4500,25.5110,-38.1830,35.0200
0.9283,0.0470,-0.1150,1.1780,-2.4890,25.0840,-37.1450,34.9800
0.9408,0.0390,-0.1230,1.1710,-2.9160,23.9080,-36.1680,34.9800
0.9477,0.0430,-0.1040,1.1580,-2.7630,23.6950,-35.9390,34.9300
0.9598,0.0440,-0.1020,1.1670,-2.2750,23.7400,-35.6950,34.9800
0.9667,0.0490,-0.1180,1.1570,-2.0920,23.3890,-36.3360,34.8800
0.9785,0.0450,-0.0980,1.1610,-0.3970,22.9920,-36.5800,34.9300
0.9906,0.0440,-0.1080,1.1490,0.1530,22.4270,-36.8700,34.9800
0.9976,0.0630,-0.1020,1.1580,-1.2370,22.0460,-37.3590,35.0700
1.0102,0.0610,-0.0850,1.1630,0.2600,22.3510,-37.8470,34.9300
1.0166,0.0740,-0.0870,1.1680,-0.9160,22.7790,-37.2060,34.8800
1.0289,0.0640,-0.0780,1.1730,-3.0840,23.5270,-37.0990,35.0200
1.0345,0.0770,-0.0830,1.1790,-2.9770,24.3360,-37.2980,35.0200
1.0479,0.0770,-0.0870,1.2080,-3.4500,26.4120,-37.0990,34.9800
1.0598,0.0580,-0.0890,1.1930,-5.0530,27.6790,-37.2370,34.9300
1.0667,0.0450,-0.1130,1.1860,-3.8470,27.9390,-37.2210,35.0200
1.0791,0.0200,-0.1230,1.1770,-3.0080,27.4050,-36.1830,34.9800
1.0857,0.0010,-0.1300,1.1700,-2.0310,25.8020,-36.2440,34.9300
1.0980,0.0240,-0.1390,1.1790,-0.7480,24.8850,-36.3820,35.0200
1.1099,0.0320,-0.1240,1.1860,-0.1530,24.4730,-36.3510,34.9800
1.1170,0.0260,-0.1180,1.1880,1.6030,24.6260,-36.2440,34.9300
1.1293,0.0280,-0.1080,1.1720,-0.0760,23.7860,-35.4960,34.8800
1.1359,0.0290,-0.1040,1.1800,-0.7180,24.0000,-33.4810,34.9800
1.1483,0.0260,-0.1000,1.1500,-2.4270,23.8170,-31.4350,34.9300
1.1603,0.0170,-0.0940,1.1420,-5.4050,22.7940,-30.9470,34.9800
1.1674,0.0110,-0.0830,1.1340,-5.3890,22.1530,-30.4430,34.9800
1.1793,0.0350,-0.0830,1.1400,-2.8700,20.1830,-31.8630,35.0200
1.1863,0.0590,-0.1020,1.1490,-3.4810,19.4960,-32.8400,34.9800
1.1985,0.0860,-0.0980,1.1780,-5.8930,20.0460,-33.4350,34.8400
1.2106,0.0920,-0.0680,1.1970,-4.7940,22.5950,-33.1760,34.9300
1.2173,0.0880,-0.0700,1.1950,-4.6870,23.3740,-34.4270,34.9800
1.2296,0.0680,-0.0960,1.2050,-4.4580,26.3820,-35.0380,34.9300
1.2364,0.0470,-0.1290,1.2050,-5.3280,27.1910,-34.4120,34.9800
1.2488,0.0040,-0.1390,1.1840,-4.0150,27.0380,-33.9540,34.9800
1.2609,-0.0220,-0.1380,1.1520,-2.0920,25.4350,-34.3970,34.9300
1.2682,-0.0390,-0.1350,1.1330,-1.4200,22.4580,-34.4120,34.9800
1.2797,-0.0310,-0.1470,1.1370,-3.0690,19.6030,-33.8930,34.8800
1.2864,-0.0060,-0.1280,1.1440,1.1150,17.6340,-33.5570,34.9300
1.2985,0.0180,-0.0940,1.1410,-1.1150,16.2290,-32.7940,34.8800
1.3108,0.0370,-0.0810,1.1470,1.4200,14.7480,-37.0380,34.8800
1.3179,0.0480,-0.0500,1.1400,0.3050,13.7860,-37.3440,35.0200
1.3298,0.0640,-0.0620,1.1660,-0.7790,13.9540,-38.5340,35.0700
1.3366,0.0850,-0.0570,1.1810,-1.4960,15.4500,-37.7860,34.9300
1.3489,0.0890,-0.0730,1.1970,-4.0760,18.6110,-35.3130,34.8400
1.3543,0.0830,-0.0900,1.1940,-5.1450,20.3050,-33.3440,34.9800
1.3680,0.0620,-0.1040,1.1850,-6.9620,22.7480,-32.1370,34.9300
1.3801,0.0400,-0.0880,1.1700,-5.4350,23.3280,-33.1300,34.9300
1.3868,0.0340,-0.1110,1.1840,-5.4200,20.1530,-34.4120,34.8800
1.3994,0.0540,-0.1340,1.1990,-5.6790,19.8780,-35.1910,34.9300
1.4063,0.0670,-0.1440,1.2240,-4.4730,21.8780,-34.7180,34.9800
1.4181,0.0600,-0.1420,1.2230,-3.9540,24.4730,-33.5270,34.9800
1.4302,0.0530,-0.1340,1.2020,-3.2060,26.2750,-33.1600,34.8400
1.4370,0.0250,-0.1450,1.1710,-2.6260,25.6790,-33.1910,34.8800
1.4493,0.0090,-0.1340,1.1660,-1.5880,24.0310,-35.2060,34.8800
1.4565,0.0290,-0.1250,1.1820,-0.6870,23.9540,-35.1600,34.9300
1.4681,0.0440,-0.1320,1.1790,-5.3280,26.2140,-33.6490,34.8800
1.4804,0.0470,-0.0940,1.1820,-7.3590,28.1530,-34.6560,34.9300
1.4871,0.0190,-0.0780,1.1580,-5.1150,29.1150,-38.3510,34.8800
1.4994,-0.0020,-0.0390,1.1670,-2.8400,27.8630,-36.1830,34.8800
1.5064,-0.0300,-0.1040,1.1430,-3.9850,26.9620,-36.5650,35.0200
1.5182,-0.0300,-0.0730,1.1310,-5.7100,24.9620,-37.4350,34.9300
1.5305,-0.0330,-0.0970,1.1370,-4.7020,22.8090,-36.7180,34.9800
1.5370,-0.0270,-0.1000,1.1300,-3.6490,20.9920,-38.2600,34.8400
1.5492,-0.0130,-0.1250,1.1460,-4.3050,20.3360,-36.0150,34.9800
1.5559,0.0020,-0.1490,1.1670,-2.6870,19.2820,-36.3820,34.9800
1.5682,0.0140,-0.1470,1.1710,0.4270,18.7790,-36.3970,35.0200
1.5804,0.0170,-0.1480,1.1700,0.6720,17.7710,-34.1220,34.9800
1.5870,0.0130,-0.1450,1.1700,-1.0530,17.2980,-33.0840,34.8800
1.5995,0.0300,-0.1330,1.1630,-1.2820,15.7560,-33.3740,34.9300
1.6065,0.0510,-0.1080,1.1810,-0.8850,14.6410,-33.8630,34.9800
1.6183,0.0640,-0.0890,1.1960,-0.3820,15.2980,-34.5190,34.8800
1.6305,0.0580,-0.0810,1.1760,3.2370,15.1910,-37.4350,34.9300
1.6373,0.0890,-0.0820,1.1970,0.6110,16.6720,-38.4580,34.9800
1.6498,0.0870,-0.0960,1.2210,2.3360,19.3440,-38.6560,34.9300
1.6570,0.0800,-0.0890,1.2070,0.2440,22.4120,-36.5950,34.9300
1.6688,0.0540,-0.1070,1.1780,-2.3970,23.8470,-34.4730,34.8800
1.6749,0.0290,-0.1370,1.1600,-2.5040,21.6790,-35.5880,34.9300
1.6880,0.0250,-0.1490,1.1740,-1.8020,19.4810,-36.0150,34.9300
1.7002,0.0420,-0.1530,1.1790,-3.0380,18.2440,-34.5800,34.9800
1.7071,0.0520,-0.1280,1.1790,-4.8400,18.6560,-31.9240,34.9300
1.7190,0.0630,-0.1040,1.1850,-3.3440,19.8780,-33.9690,35.0200
1.7258,0.0680,-0.0730,1.1950,1.0230,20.9770,-37.0380,34.9800
1.7383,0.0520,-0.1010,1.1750,0.9620,21.2210,-38.1370,34.9300
1.7504,0.0230,-0.1100,1.1520,0.8850,21.0990,-37.5570,34.9300
1.7577,0.0180,-0.1160,1.1570,-0.7020,19.5880,-37.0690,34.9800
1.7694,0.0250,-0.0840,1.1570,0.5500,19.0840,-37.4660,34.9300
1.7767,0.0410,-0.0850,1.1690,0.0610,19.0690,-38.0760,34.9800
1.7886,0.0550,-0.0910,1.1900,-1.2670,19.3590,-38.2900,34.9800
1.8009,0.0580,-0.1060,1.1870,0.1980,20.4730,-39.1760,34.9300
1.8077,0.0500,-0.1120,1.1900,1.8930,20.4270,-40.7330,34.8800
1.8198,0.0420,-0.1180,1.1840,-0.4890,20.5650,-41.7710,34.9800
1.8268,0.0380,-0.1090,1.1910,-0.3050,19.8780,-41.4500,34.9300
1.8390,0.0400,-0.1400,1.2020,-0.3660,19.9080,-39.7860,34.9800
1.8458,0.0410,-0.1270,1.2130,0.3970,19.9080,-39.8630,34.9800
1.8582,0.0540,-0.0990,1.2040,1.8780,19.9690,-39.2820,34.9800
1.8703,0.0460,-0.1010,1.1870,1.9690,21.4350,-39.6640,34.9800
1.8771,0.0390,-0.1080,1.1810,1.8020,21.1910,-39.5730,34.9300
1.8894,0.0340,-0.1000,1.1610,-0.3510,20.7020,-39.2520,35.0200
1.8967,0.0320,-0.0990,1.1670,-0.8240,20.4120,-39.2060,34.9800
1.9085,0.0360,-0.0670,1.1710,-1.1910,21.3280,-38.8550,34.9300
1.9206,0.0370,-0.0590,1.1630,-1.9690,20.8850,-38.6560,34.9800
1.9273,0.0350,-0.0640,1.1600,-0.3970,21.9390,-40.1370,34.9800
1.9398,0.0290,-0.0770,1.1860,-2.4430,21.7560,-40.5040,34.9300
1.9463,0.0260,-0.0730,1.1790,-3.2520,22.9310,-40.1370,34.9800
1.9589,0.0260,-0.0710,1.1780,-2.8700,22.9620,-39.3130,34.9800
1.9709,0.0270,-0.0940,1.1850,-4.0920,23.5270,-40.3660,34.9300
1.9779,0.0250,-0.1030,1.1730,-4.5800,23.9690,-40.8850,34.9800
1.9899,0.0190,-0.1110,1.1620,-2.3360,23.5270,-41.9690,34.9800
1.9966,0.0190,-0.0990,1.1570,-2.3360,23.0230,-41.8930,35.0200
2.0090,0.0110,-0.0980,1.1500,-3.1450,22.8240,-40.6720,34.9800
2.0209,0.0150,-0.0750,1.1610,-4.8240,22.7940,-39.2820,34.9800
2.0278,0.0140,-0.0530,1.1500,-3.1450,22.3820,-40.9010,34.9300
2.0400,0.0110,-0.0730,1.1450,-4.7630,22.1680,-42.7630,34.9800
2.0471,0.0100,-0.0760,1.1540,-4.5040,22.3970,-45.0840,34.9800
2.0590,0.0080,-0.0860,1.1550,-4.8090,22.8090,-44.4430,35.0200
2.0662,0.0000,-0.0960,1.1590,-5.9690,23.5270,-42.5040,34.9800
2.0779,-0.0070,-0.0730,1.1610,-6.8400,22.4270,-42.0920,34.9800
2.0901,-0.0080,-0.0770,1.1820,-5.9390,22.3510,-43.3590,35.0200
2.0972,0.0040,-0.0790,1.2050,-5.3280,22.8850,-43.2210,35.0700
2.1090,-0.0040,-0.1280,1.1960,-5.5110,23.3440,-42.5340,34.9800
2.1150,0.0040,-0.1680,1.2130,-4.3820,23.7400,-40.7940,35.0200
2.1278,0.0160,-0.1860,1.2030,-4.5800,24.8400,-38.7630,34.9800
2.1403,0.0060,-0.1650,1.1870,-2.4730,24.0610,-38.3660,34.9300
2.1473,0.0190,-0.1370,1.1910,-2.7020,23.3590,-37.1600,34.9300
2.1593,0.0230,-0.1250,1.1970,-3.9540,23.4050,-35.6790,34.9800
2.1660,0.0130,-0.1070,1.1840,-2.2600,23.4350,-36.5650,35.0200
2.1781,0.0120,-0.0940,1.1760,-2.2290,23.6640,-36.9620,34.9300
2.1902,-0.0040,-0.0880,1.1470,-0.1980,22.2140,-39.7400,34.8800
2.1971,0.0020,-0.1000,1.1520,0.7940,20.7790,-42.0920,35.0200
2.2091,0.0090,-0.0850,1.1560,0.3820,20.3510,-42.1220,34.9300
2.2164,0.0010,-0.1060,1.1500,0.8240,19.3590,-42.6410,34.9800
2.2286,0.0070,-0.1250,1.1610,-1.6640,19.4810,-39.7100,34.9300
2.2407,0.0060,-0.1250,1.1630,-4.6110,20.3050,-35.4050,34.9800
2.2475,-0.0050,-0.1330,1.1520,-4.1370,19.0080,-35.0530,34.8800
2.2594,-0.0010,-0.1150,1.1640,-4.7790,16.9620,-35.5730,34.9300
2.2665,0.0080,-0.1120,1.1740,-3.4660,16.2750,-36.4730,34.9800
2.2786,0.0290,-0.1150,1.1760,-1.8780,16.3050,-37.5270,34.8800
2.2906,0.0250,-0.1220,1.1970,-2.2750,16.4120,-36.1980,34.9300
2.2976,0.0210,-0.1420,1.1800,-3.1450,16.2750,-34.9160,34.9800
2.3098,0.0180,-0.1370,1.1680,-2.1220,15.5730,-34.5800,34.9800
2.3165,0.0180,-0.1390,1.1740,-1.9390,14.4430,-35.0530,34.9300
2.3285,0.0240,-0.1240,1.1670,-1.3740,14.4270,-34.5340,34.9800
2.3406,0.0350,-0.1230,1.1700,-1.0230,14.4730,-35.4500,34.8800
2.3476,0.0420,-0.1190,1.1630,-1.1760,14.6870,-35.5270,34.9300
2.3595,0.0270,-0.0980,1.1580,-1.8930,14.0460,-34.7330,34.9800
2.3665,0.0170,-0.0970,1.1610,-1.8170,13.1300,-34.4580,34.9300
2.3784,0.0310,-0.0750,1.1550,-2.2600,12.3820,-34.1370,34.9300
2.3909,0.0260,-0.0900,1.1600,-1.2210,11.4960,-35.7250,34.9800
2.3974,0.0590,-0.0970,1.1860,-1.2820,12.3210,-36.9920,34.9300
2.4096,0.0800,-0.1120,1.2160,-1.5110,14.0760,-36.2290,34.8800
2.4165,0.0590,-0.1110,1.1960,-3.0380,15.8930,-35.7400,34.9800
2.4287,0.0480,-0.1240,1.1990,-2.2600,17.1910,-36.2750,35.0200
2.4344,0.0460,-0.1200,1.1950,-5.0840,18.0920,-34.9310,35.0200
2.4479,0.0330,-0.1140,1.1870,-2.5500,18.4890,-35.2820,34.8800
2.4599,0.0240,-0.1220,1.1710,-1.8320,17.7250,-35.7560,34.9300
2.4668,0.0170,-0.1110,1.1640,-2.8700,16.7330,-35.8470,34.8800
2.4791,0.0240,-0.0900,1.1530,-0.6410,15.1300,-37.2520,34.9800
2.4858,0.0320,-0.0910,1.1540,0.1220,15.3440,-38.9010,34.9300
2.4980,0.0440,-0.0900,1.1660,-0.7020,14.3660,-38.9010,35.0200
2.5104,0.0380,-0.1180,1.1650,0.1980,14.8090,-38.6720,34.9800
2.5171,0.0450,-0.1210,1.1620,-1.4050,14.8700,-38.3660,34.9300
2.5294,0.0550,-0.0950,1.1630,-1.9390,15.8780,-37.9690,34.8800
2.5361,0.0580,-0.1130,1.1740,-1.2370,16.3660,-38.2140,34.9800
2.5484,0.0500,-0.1000,1.1790,-1.5110,16.8700,-37.8470,34.9300
2.5607,0.0430,-0.1030,1.1670,-2.4430,16.8400,-37.7860,34.9300
2.5675,0.0350,-0.1250,1.1710,-2.6560,15.8020,-38.4270,34.9800
2.5797,0.0520,-0.1320,1.1680,-2.5500,15.4810,-38.0920,34.9300
2.5864,0.0440,-0.1330,1.1710,-2.3820,15.1600,-38.1680,34.9800
2.5987,0.0500,-0.1170,1.1830,-4.1070,15.2670,-37.3890,35.0700
2.6106,0.0520,-0.0980,1.1780,-4.0760,15.4500,-37.0840,34.9300
2.6178,0.0500,-0.0820,1.1860,-1.2980,15.8020,-38.9010,34.9800
2.6298,0.0500,-0.0950,1.1770,-1.2520,15.8780,-39.4660,35.0700
2.6367,0.0510,-0.1080,1.1800,-0.4890,16.1220,-40.0610,35.0200
2.6487,0.0340,-0.1150,1.1740,-2.5950,16.5340,-40.2290,34.9800
2.6609,0.0320,-0.1010,1.1850,-2.6260,16.4120,-38.5040,34.9800
2.6678,0.0320,-0.1080,1.1720,-4.1070,16.1680,-39.1760,34.9300
2.6798,0.0410,-0.1180,1.1860,-3.7100,16.1980,-37.8930,34.9800
2.6867,0.0420,-0.1340,1.1740,-3.1150,16.7940,-37.5420,34.9800
2.6991,0.0450,-0.1390,1.1880,-3.3280,16.6870,-37.9390,34.9300
2.7045,0.0340,-0.1230,1.1900,-3.3280,16.5040,-37.6950,34.8800
2.7181,0.0280,-0.0820,1.1670,-1.5110,16.4430,-37.4200,34.9300
2.7302,0.0310,-0.0840,1.1630,-4.7180,16.1370,-36.0000,34.9300
2.7370,0.0270,-0.1030,1.1780,-4.1070,15.9540,-36.9920,34.9800
2.7494,0.0490,-0.1110,1.1790,-1.9690,15.8930,-38.1070,34.9300
2.7560,0.0530,-0.1390,1.1800,-0.9620,15.0840,-39.6640,34.9300
2.7689,0.0510,-0.1390,1.1930,1.0990,15.2370,-40.0150,34.9800
2.7803,0.0570,-0.1320,1.1890,0.9770,15.0380,-39.6950,35.0200
2.7870,0.0700,-0.1280,1.2060,-0.4270,16.0760,-38.7330,34.8800
2.7992,0.0660,-0.1200,1.2040,0.9470,17.6790,-37.9850,34.8800
2.8062,0.0570,-0.1040,1.1840,0.4890,18.5800,-38.2140,35.0200
2.8185,0.0450,-0.0890,1.1710,-1.5880,18.5500,-37.9540,34.9800
2.8307,0.0320,-0.1090,1.1790,-1.8470,18.4580,-38.8240,34.9800
2.8378,0.0380,-0.1110,1.1850,-1.8320,17.8470,-38.1830,34.9300
2.8496,0.0440,-0.1050,1.1780,-0.1830,17.8630,-38.3970,34.9800
2.8569,0.0480,-0.1130,1.1830,0.7330,17.5730,-38.9310,34.9800
2.8689,0.0550,-0.1270,1.1710,1.5110,17.0230,-39.4350,35.0200
2.8747,0.0630,-0.1120,1.1750,1.5110,17.2670,-39.1450,34.9800
2.8881,0.0630,-0.0990,1.1670,1.1300,18.0920,-37.8320,35.0200
2.9001,0.0730,-0.0940,1.1780,1.0690,18.4430,-38.4890,35.0700
2.9073,0.0710,-0.0890,1.1720,1.2210,18.7940,-39.1600,34.9800
2.9193,0.0660,-0.0830,1.1730,1.9240,19.2370,-39.4350,34.9300
2.9266,0.0660,-0.0960,1.1740,0.5500,19.2520,-39.5730,34.9300
2.9387,0.0680,-0.1050,1.1670,-0.7790,19.2210,-39.2370,34.9800
2.9505,0.0690,-0.1010,1.1810,-1.3890,19.8930,-39.0690,34.9300
2.9577,0.0750,-0.1070,1.1780,-0.1830,20.3050,-39.3590,34.9800
2.9696,0.0670,-0.1090,1.1710,0.1070,20.6560,-38.8400,34.9800
2.9768,0.0620,-0.0940,1.1510,-0.6260,20.8400,-38.7330,35.1200
2.9889,0.0490,-0.1060,1.1440,-0.4270,20.5650,-38.3970,34.9300
3.0008,0.0420,-0.1030,1.1680,0.3660,18.5040,-38.3970,34.9800
3.0081,0.0620,-0.0820,1.1500,-2.8550,19.7710,-39.7560,35.0200
3.0201,0.0520,-0.0660,1.1620,-0.5650,20.0460,-40.0760,34.9800
3.0269,0.0640,-0.0620,1.1740,-0.2440,21.2370,-41.0230,34.8800
3.0392,0.0520,-0.0700,1.1690,-4.7020,22.1980,-40.9010,34.9300
3.0457,0.0390,-0.1090,1.1420,-4.9010,20.6720,-39.8020,34.8800
3.0583,0.0270,-0.1170,1.1390,-2.9470,19.4200,-39.3740,34.9800
3.0701,0.0210,-0.1330,1.1300,-4.5950,16.9770,-38.5800,35.0200
3.0772,0.0420,-0.1270,1.1460,-2.9160,14.7480,-38.4890,34.9800
3.0892,0.0690,-0.1200,1.1620,-0.6720,13.6180,-39.0380,34.9800
3.0964,0.0770,-0.0940,1.1530,-4.3660,13.2520,-37.8170,34.9300
3.1084,0.0640,-0.1050,1.1660,-3.1760,12.2900,-39.7400,34.9800
3.1202,0.0810,-0.1140,1.1830,-0.4730,9.3890,-41.5110,34.9800
3.1275,0.0890,-0.1040,1.1780,-5.7100,12.3820,-40.6260,34.9300
3.1395,0.0910,-0.1030,1.1770,-2.1220,14.4270,-40.2140,34.9800
3.1464,0.0800,-0.0860,1.1780,-3.2670,14.9620,-38.5190,34.9800
3.1584,0.0790,-0.0820,1.1450,-5.1450,15.0840,-37.8320,35.0200
3.1706,0.0810,-0.1140,1.1700,-4.2600,15.2370,-39.6180,34.9800
3.1773,0.0840,-0.1270,1.1740,-3.8020,14.5800,-40.2600,34.9800
3.1897,0.0830,-0.1090,1.1970,-2.4730,16.1680,-39.0530,35.0200
3.1965,0.0820,-0.1240,1.1550,-3.1450,16.6870,-38.8400,34.9800
3.2086,0.0740,-0.1090,1.1540,-3.6180,15.8780,-39.9690,34.8800
3.2209,0.0720,-0.1120,1.1610,-3.8780,14.7020,-39.8780,34.8400
3.2275,0.0830,-0.1210,1.1790,-4.5950,14.7020,-40.2140,34.8800
3.2399,0.0940,-0.1060,1.1830,-5.9540,15.6640,-38.5950,35.0200
3.2469,0.0730,-0.1010,1.1690,-4.8240,16.5190,-38.5800,34.9300
3.2590,0.0770,-0.1140,1.1510,-2.7020,15.2060,-39.5420,34.8800
3.2708,0.0770,-0.1170,1.1420,-1.9690,13.2670,-40.9920,34.9300
3.2779,0.0780,-0.1080,1.1550,-0.6110,9.1450,-43.3440,34.9300
3.2902,0.0880,-0.0900,1.1670,-2.0000,10.6110,-44.0760,34.9800
3.2969,0.1350,-0.0630,1.2040,-2.1220,12.1530,-43.7100,34.9300
3.3094,0.1470,-0.0730,1.2090,-5.1910,16.0310,-41.3280,35.0200
3.3162,0.1320,-0.0970,1.2140,-7.0690,19.2670,-39.4500,34.9800
3.3281,0.0850,-0.1120,1.1750,-6.5040,19.6790,-39.4960,35.0200
3.3399,0.0730,-0.1420,1.1550,-5.3440,18.1830,-39.8930,35.0200
3.3471,0.0770,-0.1700,1.1670,-3.5420,16.3210,-40.0610,35.0700
3.3593,0.0930,-0.1700,1.1950,-2.6260,15.3740,-40.3660,34.9300
3.3666,0.1150,-0.1280,1.2070,-3.0990,15.9390,-39.5270,35.0200
3.3781,0.1170,-0.1020,1.2170,-1.6950,17.4350,-39.9690,34.9800
3.3905,0.0970,-0.0970,1.2150,-3.8630,19.2980,-39.3740,34.9300
3.3973,0.0740,-0.0940,1.1870,-2.3510,19.9850,-40.2900,34.9800
3.4094,0.0560,-0.1180,1.1610,-1.5880,18.7940,-40.1220,34.8800
3.4165,0.0560,-0.1500,1.1560,0.2600,17.2060,-40.8700,34.9300
3.4285,0.0790,-0.1810,1.1800,-0.6560,15.6640,-38.8850,34.9800
3.4406,0.1000,-0.1700,1.1860,-0.1530,15.1760,-37.9240,34.9800
3.4477,0.1160,-0.1240,1.1870,-0.5190,15.5270,-38.3210,34.9300
3.4598,0.1210,-0.1040,1.1870,-0.6260,16.2440,-39.5570,34.9800
3.4668,0.1230,-0.0790,1.1980,1.0230,17.7710,-41.0840,34.9800
3.4788,0.1140,-0.0920,1.1710,-0.3970,18.3970,-40.8240,34.9300
3.4910,0.1050,-0.1250,1.1770,-0.7480,18.4430,-40.5340,34.9800
3.4975,0.1070,-0.1200,1.1730,-0.0610,18.3210,-41.1150,34.9800
3.5100,0.1050,-0.1180,1.1950,-0.6560,18.2900,-40.5340,35.0200
3.5169,0.1090,-0.1000,1.1960,-2.1370,19.0990,-39.6950,34.9800
3.5287,0.1080,-0.0850,1.1810,-0.7180,19.6180,-40.6260,34.8800
3.5345,0.1090,-0.0880,1.1730,1.7250,19.0690,-42.7180,34.8400
3.5482,0.1130,-0.1170,1.1600,2.1370,18.2900,-43.6490,34.8800
3.5600,0.1190,-0.1410,1.1580,2.5500,17.5880,-43.2980,35.0200
3.5673,0.1220,-0.1470,1.1770,1.7560,17.0840,-42.4120,34.9800
3.5793,0.1340,-0.1000,1.1740,-1.3130,17.6640,-40.1980,34.9800
3.5862,0.1340,-0.0750,1.1790,-2.5040,18.3210,-40.4270,34.9300
3.5985,0.1400,-0.0530,1.1790,-1.0690,19.7560,-42.7630,34.9300
3.6107,0.1480,-0.0660,1.1930,-0.6720,20.9770,-43.8320,34.9800
3.6173,0.1350,-0.0930,1.1770,-0.9920,22.1830,-44.1530,34.9300
3.6297,0.1310,-0.1040,1.1850,-0.3970,23.1910,-44.1680,34.9800
3.6363,0.1250,-0.1340,1.1740,-0.7020,22.6560,-44.0310,34.9800
3.6489,0.1200,-0.1290,1.1790,-0.9010,22.1680,-44.2140,34.9300
3.6607,0.1160,-0.1060,1.1950,-0.9160,22.2900,-43.8930,34.9300
3.6680,0.1230,-0.0890,1.1850,-1.4200,22.6410,-42.5800,34.9800
3.6795,0.1190,-0.1170,1.1780,-1.5110,22.5190,-42.8240,35.0200
3.6865,0.1220,-0.1370,1.1860,-0.7020,22.6260,-43.1910,34.9800
3.6989,0.1340,-0.1520,1.1720,1.3590,22.0460,-43.2670,34.9800
3.7109,0.1310,-0.1610,1.1560,1.1150,21.5110,-43.4810,34.9300
3.7180,0.1380,-0.1570,1.1380,1.3280,21.3130,-42.1680,34.9800
3.7301,0.1440,-0.1140,1.1050,1.6340,20.6560,-43.5110,34.9800
3.7372,0.1440,-0.1200,1.1130,1.5880,19.2370,-46.3210,34.9300
3.7495,0.1670,-0.0860,1.1190,0.4120,19.6950,-46.5340,34.9800
3.7564,0.1720,-0.0820,1.1200,-1.0990,21.2520,-46.7330,34.9800
3.7684,0.1700,-0.0860,1.1170,-3.7860,23.0840,-46.8550,34.9300
3.7806,0.1680,-0.1080,1.1060,-4.8400,23.4660,-46.4270,34.9800
3.7875,0.1680,-0.1190,1.1000,-6.1680,21.2060,-47.5880,34.9800
3.7996,0.1840,-0.1180,1.1210,-1.8470,19.9080,-49.2370,35.0200
3.8065,0.2060,-0.1120,1.1270,-3.6180,19.3740,-50.9310,34.9800
3.8187,0.2120,-0.0950,1.1450,-5.1300,19.4350,-53.6180,34.9800
3.8306,0.2320,-0.0640,1.1640,-5.8930,20.1070,-53.4500,35.0200
3.8378,0.2250,-0.0710,1.1740,-7.0380,22.2900,-53.9540,34.9800
3.8496,0.2110,-0.0840,1.1710,-8.0460,23.6950,-54.8090,34.9300
3.8568,0.2140,-0.1250,1.1800,-8.5040,23.6640,-55.2060,34.9300
3.8686,0.2140,-0.1590,1.1480,-8.1070,27.2670,-55.4960,34.9800
3.8810,0.2130,-0.1630,1.1700,-6.1530,25.4810,-57.6180,34.9300
3.8877,0.2130,-0.1650,1.1930,-9.2820,25.5570,-54.8090,34.9300
3.9000,0.2140,-0.1560,1.1730,-8.5340,28.6720,-55.6030,34.9800
3.9066,0.2130,-0.1170,1.1660,-6.4430,27.4200,-56.6410,35.0200
3.9188,0.2160,-0.1150,1.1690,-5.9850,26.2600,-59.0080,34.9300
3.9247,0.2020,-0.1210,1.1790,-9.6950,29.6180,-59.3740,34.9800
3.9379,0.1970,-0.1360,1.1630,-4.2140,29.1450,-61.0990,34.9300
3.9503,0.1670,-0.1720,1.1510,-3.2060,27.3740,-61.2370,34.9800
3.9571,0.1490,-0.1760,1.1390,-5.9850,28.1370,-60.6560,34.9800
3.9690,0.1530,-0.1380,1.1420,-4.2600,26.3210,-61.8630,34.9300
3.9756,0.1590,-0.1100,1.1730,-3.6790,23.6490,-64.4270,34.9800
3.9882,0.1700,-0.0850,1.1880,-4.0460,23.5570,-66.2440,34.9800
