Time,AX,AY,AZ,GX,GY,GZ,T
0.0000,0.1530,-0.0570,1.1620,3.4200,20.4890,-43.7400,35.1700
0.0004,0.1540,-0.0720,1.1600,5.3890,19.6180,-46.8850,35.0700
0.0007,0.1550,-0.0630,1.1560,1.4810,19.3130,-45.3740,35.1200
0.0010,0.1480,-0.0720,1.1630,-2.0460,18.5340,-42.7480,35.0700
0.0014,0.1430,-0.0490,1.1470,0.1980,18.6720,-43.9690,35.0700
0.0017,0.1730,-0.0530,1.1600,2.4270,19.6790,-44.5190,35.1200
0.0020,0.1900,-0.0680,1.1790,-0.2750,20.7630,-43.4810,35.1700
0.0023,0.2060,-0.0720,1.1710,-2.9470,20.9920,-41.9080,35.1700
0.0026,0.2010,-0.0820,1.1950,-0.0150,23.6340,-42.2140,35.1200
0.0030,0.1970,-0.0730,1.1850,-5.1450,22.0920,-41.9540,35.1700
0.0033,0.1990,-0.0780,1.1860,-5.7560,23.4660,-41.5420,35.0700
0.0037,0.2040,-0.0800,1.1800,-0.0150,23.0990,-44.9470,35.1200
0.0042,0.2160,-0.1000,1.1960,0.4430,22.6870,-46.1370,35.1700
0.0047,0.2310,-0.0970,1.2000,-1.4350,22.7330,-44.5040,35.0700
0.0051,0.2360,-0.0840,1.1960,-1.3280,24.7330,-44.7480,35.1200
0.0055,0.2360,-0.0730,1.1850,-0.5950,24.6260,-43.8470,35.1700
0.0060,0.2270,-0.0660,1.1940,-3.5420,25.8930,-44.8090,35.1700
0.0064,0.2190,-0.0350,1.1770,-5.1600,26.5340,-45.7100,35.2100
0.0068,0.2070,-0.0260,1.1830,-2.4430,27.4200,-47.8170,35.0700
0.0086,0.2030,-0.0280,1.1660,-3.1450,28.3970,-48.6870,35.2100
0.0090,0.2010,-0.0380,1.1690,-5.7400,29.2210,-48.3510,35.2100
0.0094,0.1960,-0.0490,1.1560,-5.9390,29.0990,-47.8320,35.1700
0.0097,0.1830,-0.0770,1.1500,-8.7790,30.0760,-47.1600,35.1200
0.0100,0.1750,-0.0960,1.1430,-11.1150,27.4050,-46.5500,35.0200
0.0103,0.1640,-0.1010,1.1540,-7.9390,29.3130,-48.6720,35.2600
0.0107,0.1450,-0.0890,1.1480,-8.4430,27.1150,-49.3440,35.1200
0.0110,0.1460,-0.1020,1.1370,-6.6410,24.7630,-50.4430,35.2100
0.0114,0.1390,-0.1180,1.1350,-5.8320,22.3360,-49.6950,35.0700
0.0118,0.1640,-0.1310,1.1530,-8.0760,21.5730,-48.0150,35.1200
0.0121,0.1610,-0.1270,1.1580,-9.4350,21.1300,-46.9470,35.2100
0.0124,0.1660,-0.1040,1.1620,-10.1070,20.1830,-46.0000,35.1700
0.0128,0.1600,-0.0610,1.1550,-9.2210,19.8020,-46.0310,35.1200
0.0131,0.1580,-0.0430,1.1320,-9.2820,18.8090,-48.1220,35.2100
0.0134,0.1650,-0.0310,1.1510,-6.0310,17.7860,-52.7630,35.1700
0.0138,0.1880,-0.0600,1.1550,-5.6790,17.3590,-54.5500,35.2100
0.0142,0.1870,-0.0860,1.1670,-7.3280,18.3510,-54.1680,35.1200
0.0147,0.1860,-0.0910,1.1580,-8.8700,19.4200,-52.7790,35.0700
0.0151,0.1790,-0.1040,1.1540,-8.5650,19.9540,-52.5500,35.2100
0.0157,0.1780,-0.0970,1.1610,-11.8930,19.6030,-51.0840,35.1200
0.0162,0.1870,-0.1130,1.1730,-11.4960,20.1980,-50.2600,35.0700
0.0166,0.1910,-0.1030,1.1860,-12.8240,20.8090,-50.7940,35.0200
0.0171,0.1980,-0.0720,1.1930,-16.6870,23.6640,-47.9690,35.1200
0.0175,0.1640,-0.0960,1.1730,-19.5270,24.5500,-45.6950,35.1700
0.0179,0.1590,-0.1180,1.1750,-17.3590,25.7560,-46.6870,35.2100
0.0183,0.1550,-0.1380,1.1750,-12.8850,25.0990,-47.6490,35.1700
0.0186,0.1470,-0.1420,1.1470,-6.0460,23.2980,-50.3970,35.0700
0.0189,0.1520,-0.1470,1.1560,-4.1070,19.5110,-54.8090,35.2100
0.0192,0.1460,-0.1360,1.1670,0.4890,18.1070,-57.6030,35.0700
0.0196,0.1610,-0.1300,1.1630,0.6410,15.5110,-57.3130,35.1700
0.0199,0.1710,-0.1210,1.1790,-0.9620,16.3210,-52.0310,35.1200
0.0202,0.1880,-0.1370,1.1750,-3.1300,16.3210,-50.9310,35.1700
0.0206,0.2150,-0.1020,1.1830,-4.7790,17.7710,-47.5570,35.0700
0.0212,0.2030,-0.1170,1.1630,-5.6790,18.4430,-45.3590,35.2100
0.0215,0.1930,-0.1080,1.1740,-9.6030,19.4200,-44.1680,35.1700
0.0218,0.1980,-0.0820,1.1540,-13.9390,20.3050,-42.0760,35.1700
0.0222,0.1940,-0.0830,1.1640,-15.9690,20.8700,-41.5420,35.1200
0.0225,0.1990,-0.0890,1.1780,-21.1600,21.0840,-40.6560,35.1700
0.0228,0.1950,-0.0940,1.1590,-18.5500,19.5270,-41.3130,35.0700
0.0232,0.1780,-0.0950,1.1160,-12.7330,19.0690,-45.7250,35.1200
0.0238,0.1670,-0.0980,1.1110,-5.4960,15.3280,-51.2820,35.0700
0.0240,0.1680,-0.1280,1.1190,-2.5500,12.8700,-57.7560,35.1700
0.0243,0.1690,-0.1310,1.1590,-6.9620,10.3970,-61.6640,35.0700
0.0246,0.1850,-0.0740,1.1970,-11.7250,11.1760,-55.3890,35.1700
0.0249,0.1820,-0.0420,1.1960,-12.6410,12.4730,-55.7400,35.2100
0.0252,0.1950,0.0200,1.2190,-12.8090,19.7710,-56.6260,35.1200
0.0254,0.2170,0.0240,1.2350,-13.8780,18.1680,-62.5190,35.1700
0.0257,0.2020,-0.0030,1.2370,-9.3440,20.7630,-66.7330,35.1200
0.0260,0.2010,-0.0580,1.2440,-8.5040,23.6490,-69.4660,35.0700
0.0263,0.1660,-0.1190,1.2300,-10.5040,25.9850,-69.2370,35.1700
0.0266,0.1320,-0.1610,1.1900,-10.7020,26.4270,-68.6110,35.2100
0.0268,0.0970,-0.1900,1.1480,-6.6560,25.1600,-70.0920,35.1200
0.0271,0.0830,-0.2290,1.1400,-7.3890,20.1530,-71.2520,35.1700
0.0274,0.1150,-0.1880,1.1710,-9.8320,19.6180,-64.7630,35.0200
0.0277,0.1070,-0.1630,1.2000,-12.4890,20.9160,-58.2440,34.9800
0.0279,0.1180,-0.0860,1.2130,-17.0690,22.1680,-53.8020,35.0700
0.0282,0.1220,-0.0540,1.2040,-16.1370,24.7020,-53.5110,35.1200
0.0285,0.1050,-0.0470,1.1890,-8.3660,25.8170,-61.0990,35.0700
0.0288,0.0970,-0.0530,1.1970,-3.1600,25.6790,-65.9080,35.0700
0.0291,0.0800,-0.0790,1.1760,1.8320,24.6720,-73.1600,35.1200
0.0293,0.0680,-0.0920,1.1830,2.3820,20.8090,-78.1220,34.9800
0.0296,0.0540,-0.0820,1.1780,-0.0460,19.6180,-78.7940,35.1700
0.0299,0.0520,-0.0700,1.1730,3.5420,19.2060,-75.8930,35.2100
0.0301,0.0750,-0.0620,1.1640,2.7330,18.4890,-73.8630,35.0700
0.0303,0.1010,-0.0850,1.1730,-2.2290,18.4580,-68.8400,35.0700
0.0306,0.1240,-0.1150,1.1930,-5.7100,20.3970,-66.1680,35.2100
0.0308,0.1260,-0.1360,1.2130,-6.8090,23.1600,-66.8850,34.9800
0.0311,0.1090,-0.1240,1.2050,-4.7790,26.1680,-68.6260,35.0700
0.0313,0.0940,-0.1180,1.1960,-4.0460,27.9540,-70.8850,35.1200
0.0316,0.0700,-0.1050,1.1730,-3.0990,26.6260,-73.0530,35.0700
0.0318,0.0510,-0.0890,1.1660,-0.0310,29.9080,-73.6640,35.1200
0.0322,0.0160,-0.1230,1.1440,-2.9620,25.3280,-71.4960,35.0200
0.0325,-0.0070,-0.1350,1.1600,0.5040,31.5880,-70.5190,35.0700
0.0327,-0.0400,-0.1420,1.1140,-3.1600,23.6490,-69.2520,35.1200
0.0330,-0.0370,-0.1300,1.1150,1.7100,20.3820,-70.9470,35.1200
0.0332,-0.0390,-0.1420,1.1260,3.4660,18.7180,-68.4430,35.1700
0.0335,-0.0220,-0.1670,1.1250,1.2060,16.5190,-67.1150,35.1200
0.0337,-0.0090,-0.1500,1.1310,4.6720,16.1370,-66.0460,35.1200
0.0339,0.0260,-0.1580,1.1290,7.1910,13.8930,-62.3210,35.0700
0.0342,0.0290,-0.1400,1.1240,8.1370,12.1070,-64.0610,35.0200
0.0344,0.0310,-0.1140,1.1030,12.0760,10.3050,-65.4500,35.0200
0.0347,0.0550,-0.1060,1.1210,13.1760,11.1300,-65.6030,35.0700
0.0349,0.0940,-0.0620,1.1350,9.0080,11.7250,-63.0840,35.1200
0.0352,0.1130,-0.0130,1.1340,6.3660,14.8850,-60.4430,35.0200
0.0354,0.1260,-0.0070,1.1460,5.1450,20.6110,-60.1220,35.0700
0.0355,0.1140,-0.0510,1.1440,-0.3510,23.8020,-60.3050,35.0200
0.0357,0.0860,-0.0760,1.1360,0.1070,25.5570,-61.1600,35.1200
0.0358,0.0780,-0.0890,1.1230,-0.1530,25.2060,-60.5040,35.0700
0.0360,0.0850,-0.0960,1.1370,-2.4120,25.0080,-58.7940,35.1200
0.0361,0.0940,-0.1140,1.1370,-3.5110,24.4730,-57.1760,35.1200
0.0363,0.0900,-0.1230,1.1440,-1.8020,25.3890,-57.7560,35.0700
0.0365,0.0900,-0.1160,1.1510,-2.3210,25.0530,-54.8550,35.0200
0.0367,0.0850,-0.1130,1.1500,-1.2520,27.4050,-52.6870,35.1200
0.0370,0.0890,-0.1070,1.1560,-3.9850,25.9080,-52.1530,34.9800
0.0372,0.0890,-0.0780,1.1620,-4.8700,26.5950,-51.9540,35.0200
0.0374,0.0840,-0.0620,1.1790,-3.9850,26.2140,-52.4430,35.1200
0.0377,0.0850,-0.0510,1.1850,-3.1760,25.7400,-55.6340,35.1700
0.0379,0.0800,-0.0670,1.1640,3.0530,25.4960,-61.2210,35.1200
0.0381,0.0930,-0.0990,1.2000,1.1150,25.8320,-60.1830,34.9300
0.0383,0.0970,-0.0760,1.2070,-2.0000,28.2140,-56.4430,35.0700
0.0385,0.0890,-0.1030,1.2260,-4.6110,30.5040,-53.3280,35.1200
0.0388,0.0810,-0.0960,1.2150,-6.8700,31.0990,-53.4350,35.1200
0.0390,0.0620,-0.0970,1.2100,-6.7940,31.4660,-52.0760,35.0700
0.0392,0.0560,-0.1180,1.2040,-7.5880,30.6560,-51.4350,35.1200
0.0394,0.0460,-0.1080,1.2030,-4.8240,29.7400,-51.8320,35.0700
0.0397,0.0350,-0.1140,1.2010,-2.6410,28.2900,-50.7790,35.1700
0.0399,0.0340,-0.1020,1.1960,-1.9240,26.9620,-51.8320,35.1200
0.0401,0.0470,-0.1010,1.2110,-3.5730,25.5270,-51.0530,35.0700
0.0405,0.0410,-0.0980,1.2170,-4.7630,24.5340,-49.2520,35.1700
0.0407,0.0490,-0.0910,1.2100,-4.1680,24.0610,-47.5730,35.0200
0.0409,0.0410,-0.0870,1.1840,-4.3970,22.9770,-47.9080,35.0700
0.0412,0.0450,-0.1070,1.1840,-4.5040,21.4960,-47.8170,35.0700
0.0414,0.0500,-0.1090,1.1870,-0.1220,21.0840,-49.7860,35.1200
0.0416,0.0690,-0.1100,1.1940,1.8320,20.9160,-48.3210,35.0700
0.0418,0.0660,-0.1100,1.1840,0.4120,21.3890,-45.3740,35.0700
0.0420,0.0770,-0.0940,1.1770,-1.7250,20.8400,-43.7710,35.0200
0.0422,0.0790,-0.0740,1.1520,-1.5110,20.6720,-44.3970,34.9800
0.0424,0.0880,-0.0700,1.1580,-2.4120,19.8630,-44.7630,35.0200
0.0426,0.0870,-0.0680,1.1600,-0.6110,19.8020,-46.3820,34.9300
0.0428,0.0850,-0.0920,1.1720,-0.9620,20.5340,-46.3510,34.9800
0.0430,0.0840,-0.0960,1.1740,-2.1530,21.3280,-43.7100,35.2100
0.0432,0.0750,-0.1000,1.1670,-3.1450,21.8630,-40.4890,35.1700
0.0434,0.0850,-0.0870,1.1400,-4.5800,20.1370,-38.1370,35.0700
0.0436,0.0820,-0.0870,1.1370,-6.3510,18.4120,-38.7330,35.1200
0.0438,0.0890,-0.0630,1.1270,-3.1910,16.2750,-42.0610,35.0200
0.0440,0.1040,-0.0760,1.1510,-1.6950,15.1300,-44.5040,35.0700
0.0442,0.1200,-0.0860,1.1490,-1.3280,14.3970,-45.2670,35.1200
0.0444,0.1350,-0.1130,1.1830,-2.3210,15.0990,-44.8090,35.0700
0.0446,0.1420,-0.1190,1.1810,-2.7330,15.8630,-45.3130,35.1700
0.0448,0.1560,-0.1050,1.2020,-3.0690,16.9770,-46.5340,35.1200
0.0450,0.1660,-0.0890,1.1940,-1.5270,18.7020,-47.7400,34.9800
0.0452,0.1680,-0.1020,1.2100,0.5650,20.9010,-48.3510,35.0700
0.0454,0.1660,-0.1410,1.2040,-0.3510,22.9010,-46.0610,35.0200
0.0456,0.1550,-0.1400,1.2070,-4.6410,25.3440,-41.6950,35.0700
0.0458,0.1200,-0.1270,1.1780,-4.9310,25.4050,-41.0080,35.0700
0.0460,0.1160,-0.1040,1.1660,-3.4200,24.2440,-42.1530,35.0200
0.0462,0.1140,-0.1070,1.1940,-5.1450,20.0610,-43.1600,35.0700
0.0464,0.1020,-0.1220,1.1970,-5.2370,20.6260,-42.5950,35.0200
0.0466,0.1190,-0.0890,1.1020,-2.7180,28.8850,-44.5650,35.0200
0.0468,0.0780,-0.1370,1.1800,-3.0530,20.5650,-43.5570,35.0700
0.0470,0.0690,-0.1430,1.1740,-1.6030,19.3740,-43.7250,35.1200
0.0479,0.0680,-0.1480,1.1790,-1.5570,19.2520,-42.6720,35.0700
0.0602,0.0670,-0.1380,1.1890,-2.6410,19.4050,-39.6640,35.0700
0.0668,0.0670,-0.1230,1.1610,-4.5340,19.4960,-38.5500,35.0200
0.0792,0.0610,-0.1150,1.1640,-4.5040,18.4430,-38.8090,35.0200
0.0915,0.0550,-0.1250,1.1450,-3.2520,16.6560,-40.5040,35.0700
0.0982,0.0620,-0.1200,1.1570,-1.9080,15.3440,-41.9690,35.0200
0.1106,0.0620,-0.1100,1.1620,-0.8090,15.2670,-41.2520,35.0700
0.1171,0.0820,-0.1070,1.1690,1.5730,15.4050,-41.9240,35.0700
0.1295,0.0830,-0.0880,1.1900,1.8170,16.5190,-39.3740,35.1200
0.1365,0.0760,-0.0870,1.1590,0.7480,16.7180,-39.0530,35.0700
0.1487,0.0690,-0.0990,1.1500,-2.3510,15.2370,-37.8930,35.0700
0.1608,0.0700,-0.1110,1.1620,-0.2900,13.2060,-40.7790,35.0200
0.1678,0.0920,-0.0980,1.1560,2.0150,11.1910,-42.4580,35.0700
0.1801,0.1160,-0.0950,1.1860,-0.1530,10.7790,-41.3130,35.0700
0.1868,0.1450,-0.0830,1.1890,-0.8700,12.5950,-40.6410,35.0200
0.1993,0.1380,-0.1060,1.1990,0.3660,14.2440,-42.1980,35.1700
0.2112,0.1570,-0.1120,1.2300,-0.4580,17.0990,-41.6640,35.1700
0.2181,0.1350,-0.1170,1.2130,-2.8240,18.2900,-38.1220,35.0200
0.2304,0.1210,-0.1130,1.1910,0.3050,21.1910,-39.3280,35.0700
0.2375,0.1060,-0.1040,1.1690,0.4430,19.9240,-39.2820,35.0700
0.2495,0.1060,-0.1060,1.1630,0.5340,19.8020,-38.7790,35.0200
0.2616,0.0970,-0.1150,1.1620,-1.6490,18.3210,-38.9470,34.9800
0.2688,0.1060,-0.0890,1.1640,-0.0760,17.9540,-40.0150,34.9800
0.2807,0.1130,-0.0820,1.1620,-1.4050,17.6490,-39.4200,35.1200
0.2877,0.1120,-0.0860,1.1810,-1.9850,18.1980,-40.2600,34.9800
0.2996,0.1020,-0.1190,1.1800,-1.1300,19.0690,-39.7100,35.0700
0.3066,0.1010,-0.1270,1.1820,-5.0690,19.9690,-35.7560,35.0200
0.3187,0.0830,-0.1270,1.1660,-7.4050,19.6030,-33.8470,35.0700
0.3310,0.0720,-0.1060,1.1660,-8.1680,18.6410,-33.2370,35.1200
0.3379,0.0630,-0.1040,1.1530,-4.5500,17.0690,-35.3740,35.1200
0.3499,0.0710,-0.1090,1.1640,-2.3360,15.4500,-36.4730,35.0700
0.3567,0.0820,-0.1210,1.1650,-2.7180,14.5040,-35.6640,35.1200
0.3690,0.0780,-0.1170,1.1530,0.7790,14.2290,-36.3660,35.0200
0.3813,0.0910,-0.1150,1.1580,-0.3210,13.2820,-36.4890,34.9800
0.3882,0.0900,-0.0950,1.1520,-3.6340,13.1150,-36.1830,35.1200
0.4003,0.0930,-0.0840,1.1420,-2.5500,12.6260,-36.9010,35.1200
0.4070,0.0980,-0.1090,1.1500,-2.1830,11.8170,-38.4430,35.0700
0.4193,0.1220,-0.0970,1.1480,-2.5650,11.2370,-37.7400,35.0200
0.4314,0.1460,-0.1210,1.1710,-3.4350,11.0530,-36.9160,35.1200
0.4381,0.1610,-0.1050,1.1760,-4.6410,13.6030,-36.1680,35.0700
0.4504,0.1620,-0.0910,1.1830,-5.3280,18.6110,-36.3510,35.0200
0.4573,0.1560,-0.0730,1.1700,-5.9540,17.1600,-36.5650,35.0200
0.4695,0.1480,-0.0910,1.1790,-5.6030,18.1530,-37.9540,35.1700
0.4813,0.1480,-0.1130,1.1860,-3.5420,17.9540,-40.1830,35.1200
0.4886,0.1590,-0.1160,1.1960,-4.3970,18.1370,-40.0000,34.9800
0.5004,0.1600,-0.1260,1.2030,-2.4430,20.3970,-39.9850,34.9800
0.5076,0.1560,-0.1300,1.2010,-2.3210,21.6640,-37.9850,35.0200
0.5193,0.1450,-0.1360,1.1880,-2.1680,23.4660,-36.9620,35.0700
0.5315,0.1140,-0.1320,1.1760,-3.2060,23.8780,-36.4730,35.0700
0.5384,0.1060,-0.1320,1.1790,-3.3130,22.8090,-35.6640,35.0200
0.5506,0.0990,-0.1310,1.1790,-0.6410,22.6720,-36.2140,34.9800
0.5580,0.1170,-0.1200,1.1690,-1.4200,23.1600,-33.7860,35.0700
0.5696,0.1210,-0.1060,1.1770,-2.5500,24.5190,-32.7480,35.1200
0.5751,0.1310,-0.0980,1.1700,-2.1980,24.3970,-33.7860,35.0700
0.5888,0.1280,-0.0790,1.1650,-0.5500,25.6790,-35.0990,35.0700
0.6009,0.1100,-0.0950,1.1770,-0.4730,26.4430,-35.5110,35.1200
0.6080,0.0920,-0.1100,1.1650,-4.0310,27.2060,-34.9470,35.1700
0.6198,0.0960,-0.1120,1.1550,-3.2520,26.4730,-35.6030,34.9800
0.6268,0.0920,-0.1360,1.1650,-1.4200,25.6790,-36.3820,35.0200
0.6391,0.1220,-0.1540,1.1600,-0.6410,24.4730,-36.9010,35.0700
0.6508,0.1240,-0.1480,1.1650,-1.6640,24.6870,-35.1300,34.9800
0.6578,0.1560,-0.1420,1.1580,-0.7180,24.5950,-35.5420,35.0700
0.6701,0.1560,-0.0980,1.2010,-2.2750,29.9080,-34.8550,34.9800
0.6769,0.1480,-0.0840,1.1990,-1.0080,27.6180,-35.5110,35.1200
0.6891,0.1260,-0.0900,1.1890,-2.8240,30.4890,-36.3360,35.0200
0.7011,0.1140,-0.1000,1.1650,-7.4350,27.4050,-36.7180,35.0700
0.7078,0.1120,-0.1080,1.1590,0.4730,26.4270,-37.4350,34.9300
0.7203,0.1120,-0.1160,1.1550,-2.5500,25.4660,-36.7790,35.0700
0.7272,0.1080,-0.1330,1.1610,-2.9620,23.6790,-35.6180,35.0700
0.7392,0.1170,-0.1540,1.1560,2.4890,22.3970,-35.5110,35.0200
0.7512,0.1270,-0.1570,1.1530,0.1370,22.5340,-32.6110,35.0200
0.7584,0.1280,-0.1380,1.1550,-0.4890,21.8780,-32.0460,34.9800
0.7707,0.1300,-0.1130,1.1720,-3.7250,22.7940,-29.8020,35.1200
0.7773,0.1330,-0.0620,1.1750,-1.5420,20.4580,-31.5730,35.0700
0.7898,0.1440,-0.0620,1.1670,0.4430,21.1450,-36.5340,35.0700
0.7956,0.1410,-0.0750,1.1910,-1.0230,21.6950,-38.2290,35.0200
0.8085,0.1290,-0.0930,1.1810,0.4270,22.0150,-39.1600,34.9800
0.8209,0.1330,-0.1100,1.1740,-2.7330,21.6340,-37.9540,35.0700
0.8278,0.1190,-0.1030,1.1840,-3.8780,21.9240,-36.0610,35.0200
0.8400,0.1110,-0.1280,1.1770,-1.5570,21.1760,-37.2210,34.9800
0.8469,0.1070,-0.1280,1.1930,-2.6410,22.1530,-36.0760,35.0700
0.8591,0.0930,-0.1280,1.1850,-1.3130,21.8320,-36.7480,35.0200
0.8712,0.0800,-0.1360,1.1590,1.8780,20.2140,-37.8320,34.9800
0.8779,0.0800,-0.1450,1.1550,1.8930,18.7790,-38.8850,35.0700
0.8902,0.0900,-0.1400,1.1670,0.7180,17.2210,-38.6260,35.1200
0.8974,0.0970,-0.1090,1.1570,-0.3510,18.4580,-38.6110,35.1700
0.9093,0.1070,-0.1090,1.1960,1.1450,18.7020,-38.5950,35.1200
0.9217,0.1130,-0.1190,1.1800,-0.7940,20.5040,-35.8630,35.1200
0.9284,0.0990,-0.1320,1.1810,-0.9920,21.1760,-35.0840,35.0700
0.9406,0.0910,-0.1370,1.1610,0.6560,20.8090,-36.7020,35.0200
0.9476,0.0840,-0.1350,1.1540,2.1980,18.2440,-37.4810,34.9300
0.9595,0.1020,-0.1290,1.1670,2.8550,16.7180,-38.3820,35.0700
0.9665,0.1360,-0.1120,1.1850,2.5340,17.0080,-38.1220,35.1200
0.9791,0.1460,-0.0990,1.1730,1.3590,17.7710,-37.2980,34.9300
0.9911,0.1410,-0.0880,1.1720,3.1910,17.8780,-38.5040,35.1700
0.9984,0.1460,-0.0860,1.1580,4.1980,19.8020,-39.7250,35.0200
1.0103,0.1420,-0.0870,1.1540,3.2820,20.2600,-39.7100,35.1200
1.0170,0.1290,-0.0950,1.1590,1.9690,20.4120,-39.5570,35.1700
1.0293,0.1320,-0.0650,1.1410,0.5950,20.6720,-39.3890,35.0200
1.0415,0.1170,-0.0590,1.1380,1.4960,20.8400,-41.8020,34.9300
1.0484,0.1230,-0.0650,1.1330,1.1150,20.1370,-42.7020,35.0700
1.0608,0.1300,-0.0890,1.1630,1.4810,20.1220,-42.9620,35.0200
1.0676,0.1360,-0.0920,1.1620,-0.5190,22.0760,-42.1530,35.0700
1.0798,0.1370,-0.0980,1.1750,-0.2440,23.2060,-41.4810,35.1700
1.0868,0.1200,-0.1060,1.1680,-2.5800,24.2290,-43.0530,35.1200
1.0988,0.0980,-0.1040,1.1830,-5.8020,25.8170,-46.4580,35.0700
1.1109,0.1000,-0.0980,1.1990,-1.8630,25.6030,-43.9390,34.9800
1.1176,0.0920,-0.1150,1.2050,-0.6560,26.4430,-45.0990,35.1200
1.1300,0.0760,-0.0780,1.1780,3.6340,27.4050,-44.8240,35.1700
1.1370,0.0810,-0.0930,1.1880,2.1220,26.2600,-42.8550,35.0700
1.1491,0.0780,-0.1120,1.1690,1.4810,24.8400,-43.7400,35.0200
1.1614,0.0910,-0.1180,1.1930,-0.2140,23.1300,-42.4580,35.0700
1.1684,0.0950,-0.1060,1.1940,1.1600,23.4200,-41.4200,34.9800
1.1805,0.1020,-0.1050,1.2070,0.8090,24.2440,-41.5880,35.1200
1.1876,0.1100,-0.0940,1.2000,2.6720,24.4890,-41.8320,35.0700
1.1997,0.1100,-0.1030,1.1920,2.5040,26.5340,-42.9770,35.0700
1.2065,0.1050,-0.1090,1.1820,-1.4810,26.8700,-41.4810,35.1200
1.2190,0.0870,-0.1070,1.1710,-1.1150,26.8240,-39.3590,35.0700
1.2311,0.0740,-0.0990,1.1610,-2.0460,26.3660,-37.9080,35.0700
1.2381,0.0600,-0.0870,1.1370,1.5730,24.6110,-40.0460,35.0200
1.2502,0.0650,-0.0950,1.1380,4.2600,22.9770,-43.6640,35.0700
1.2573,0.0770,-0.0790,1.1490,2.9470,22.6560,-42.8400,35.0200
1.2695,0.0820,-0.0690,1.1550,0.8550,22.6260,-39.7250,35.0700
1.2815,0.0910,-0.0700,1.1440,-2.2900,23.6180,-37.4810,35.0700
1.2885,0.0930,-0.0790,1.1530,-4.9160,23.7250,-38.0310,35.0200
1.3006,0.0920,-0.0940,1.1540,-1.5270,22.7790,-41.3440,35.0200
1.3079,0.0940,-0.0830,1.1430,-1.8780,22.0310,-41.2820,35.0700
1.3197,0.0830,-0.0700,1.1430,-0.4430,21.5420,-41.2060,35.1200
1.3316,0.0860,-0.0660,1.1350,0.5800,21.5730,-41.4500,35.1700
1.3387,0.0900,-0.0750,1.1480,-4.0150,22.1830,-40.2140,35.0700
1.3508,0.0980,-0.0790,1.1610,-2.3820,20.5190,-43.3280,35.1200
1.3577,0.1120,-0.0930,1.1960,-1.0530,22.1530,-45.9390,35.0200
1.3701,0.1130,-0.0890,1.2010,-3.6490,23.9540,-44.5040,35.0700
1.3766,0.1000,-0.1180,1.1960,-3.6340,25.0380,-42.6110,34.9300
1.3893,0.0710,-0.1280,1.1980,-3.5570,25.4810,-41.4200,35.0700
1.4009,0.0600,-0.1510,1.1880,-3.3130,25.5730,-39.5420,35.1700
1.4080,0.0610,-0.1580,1.1900,-3.1600,22.4730,-39.3590,34.9300
1.4201,0.0710,-0.1250,1.2010,-0.4120,22.0760,-39.8630,35.1200
1.4269,0.0780,-0.1060,1.2090,-0.2140,22.6560,-39.3890,35.0700
1.4391,0.0860,-0.0790,1.1910,-0.3970,23.6640,-39.2210,35.0200
1.4510,0.0780,-0.1000,1.1840,-0.9470,22.5340,-38.5340,35.0700
1.4578,0.0710,-0.1350,1.1810,-1.3280,23.0080,-37.1150,35.0700
1.4701,0.0770,-0.1310,1.1660,0.8090,22.7480,-36.7630,35.0200
1.4770,0.0610,-0.1110,1.1810,1.9080,22.0310,-36.7480,35.0200
1.4895,0.0610,-0.0830,1.1630,-0.2290,20.9620,-36.3360,35.0700
1.5012,0.0620,-0.0680,1.1780,0.0000,19.9080,-36.3660,35.0200
1.5086,0.0900,-0.0800,1.1770,-1.8470,19.8470,-36.0150,35.1700
1.5207,0.0900,-0.0690,1.1790,-0.8240,20.5800,-36.3820,35.0700
1.5276,0.1070,-0.0900,1.1670,0.0920,21.1600,-36.7630,35.0200
1.5397,0.0920,-0.0850,1.1590,-3.0080,19.2670,-37.5570,35.0700
1.5455,0.0860,-0.0780,1.1700,0.7330,18.7630,-39.5880,35.0700
1.5586,0.1030,-0.0880,1.1900,3.7400,18.6110,-39.6490,35.0200
1.5709,0.1080,-0.0860,1.1960,-1.0380,19.5880,-37.2520,35.0700
1.5782,0.1120,-0.0820,1.2000,-3.8780,20.4580,-35.6640,35.0700
1.5901,0.1120,-0.0930,1.1810,0.0920,21.7250,-38.8550,35.0200
1.5972,0.1020,-0.0960,1.1810,0.9620,21.7860,-40.5190,35.0700
1.6090,0.0970,-0.1030,1.1800,0.3660,21.6340,-40.1370,35.0700
1.6214,0.0720,-0.1050,1.1750,1.8020,21.1600,-38.9310,35.0200
1.6283,0.0730,-0.1030,1.1670,0.5040,19.9690,-38.5650,35.0700
1.6405,0.0770,-0.1080,1.1750,2.7630,18.0000,-38.3820,34.9800
1.6476,0.0930,-0.1090,1.1840,5.4500,18.7480,-37.7860,35.1200
1.6595,0.1060,-0.1250,1.1850,2.3820,19.4660,-36.4270,35.0700
1.6666,0.1050,-0.1090,1.1870,0.1680,19.2370,-34.9160,35.1200
1.6791,0.1000,-0.0820,1.1820,0.3210,21.0690,-34.3970,35.0200
1.6910,0.0970,-0.0440,1.1850,3.7400,20.0610,-37.2370,34.9800
1.6983,0.0980,-0.0510,1.1940,4.9770,21.6950,-39.1600,35.0200
1.7104,0.0950,-0.0910,1.1660,1.6180,21.7860,-38.9770,35.0200
1.7171,0.0940,-0.0950,1.1570,1.8780,21.6340,-39.8470,35.0700
1.7292,0.0940,-0.0900,1.1630,2.3050,23.0380,-39.7710,35.0200
1.7416,0.0880,-0.0770,1.1600,-3.6340,22.1680,-38.0460,35.0200
1.7489,0.0850,-0.0540,1.1750,0.6260,22.6870,-39.7560,35.0700
1.7609,0.0810,-0.0570,1.1380,2.6110,23.6790,-42.0000,35.0200
1.7675,0.0730,-0.0870,1.1530,0.5190,22.3050,-41.8470,35.1200
1.7801,0.0650,-0.0860,1.1450,4.1830,20.1530,-42.9160,35.0700
1.7871,0.0830,-0.0940,1.1690,3.0380,18.7330,-41.4200,35.0200
1.7992,0.0890,-0.0900,1.1720,-1.7400,20.6260,-38.5650,35.1200
1.8114,0.0900,-0.0910,1.1730,-4.3820,22.1680,-36.0610,34.9800
1.8181,0.0880,-0.0810,1.1890,-5.8170,20.4430,-35.6340,35.1200
1.8304,0.0850,-0.0790,1.1580,-3.0840,20.9620,-39.0840,35.0700
1.8375,0.0740,-0.0680,1.1620,-0.7180,19.8470,-41.2820,34.9800
1.8493,0.0910,-0.0840,1.1720,-1.1450,20.4730,-41.1600,35.0200
1.8614,0.0920,-0.0930,1.1660,-5.9540,20.5500,-39.4500,34.9800
1.8682,0.0810,-0.0900,1.1660,-7.0380,22.1830,-44.7330,35.0700
1.8805,0.0730,-0.0680,1.1690,0.7180,20.3820,-41.9690,35.0200
1.8876,0.0650,-0.0840,1.1690,-1.9690,18.1530,-40.9470,35.0700
1.8996,0.0810,-0.0840,1.1880,-3.1150,18.6410,-39.8630,34.9800
1.9116,0.0810,-0.0890,1.1790,-2.0610,19.0230,-41.2060,35.1200
1.9186,0.0860,-0.0700,1.1900,-0.6110,20.4430,-41.3740,35.0700
1.9307,0.0730,-0.0830,1.1760,-0.0610,20.8850,-42.2900,34.9800
1.9379,0.0700,-0.1000,1.1820,-2.8550,19.4960,-42.7790,35.1200
1.9497,0.0690,-0.0950,1.1810,-1.2370,19.4350,-41.7250,35.0700
1.9569,0.0870,-0.1020,1.1890,-3.2520,18.1530,-39.9240,35.1700
1.9687,0.0890,-0.0830,1.1930,-5.6340,19.1150,-39.0230,35.0200
1.9808,0.0910,-0.0900,1.1920,-0.7180,20.4580,-41.0080,35.0700
1.9879,0.0870,-0.0870,1.1870,0.7330,19.5730,-42.3210,35.0200
1.9998,0.0840,-0.0790,1.1960,2.2900,20.2600,-40.9010,34.9800
2.0072,0.0720,-0.1020,1.1750,-0.3510,20.5190,-39.8630,34.9800
2.0191,0.0600,-0.0880,1.1730,-0.7330,18.7180,-38.9620,35.0200
2.0313,0.0710,-0.0720,1.1640,2.0150,17.9390,-40.2440,35.0200
2.0383,0.0840,-0.0750,1.1770,1.2210,16.3050,-39.6490,35.0700
2.0503,0.1160,-0.0900,1.1770,-1.4660,16.4730,-39.1910,35.0200
2.0571,0.1220,-0.0620,1.1710,-2.5500,19.3740,-41.5730,35.0700
2.0694,0.1010,-0.0370,1.1720,3.2980,18.6720,-43.9080,35.0700
2.0817,0.1210,-0.0470,1.1990,6.0310,16.6720,-47.6030,35.0200
2.0889,0.1240,-0.0720,1.1900,3.8780,19.3440,-47.7860,35.0200
2.1009,0.1170,-0.0850,1.2030,2.0920,21.0840,-45.4660,35.0700
2.1078,0.0940,-0.0790,1.1820,-1.8170,22.1530,-41.7100,34.9300
2.1200,0.0720,-0.0660,1.1640,1.5420,21.0530,-41.5730,35.0700
2.1269,0.0550,-0.0830,1.1370,2.7020,17.7710,-42.6110,34.9800
2.1390,0.0800,-0.0690,1.1500,3.3590,17.6180,-43.2820,35.0200
2.1513,0.0840,-0.0710,1.1610,0.3210,15.0530,-42.2140,34.9800
2.1581,0.0930,-0.0600,1.1680,0.3820,17.0380,-41.2520,34.9800
2.1705,0.1020,-0.0520,1.1680,3.1600,17.6790,-42.5040,35.0200
2.1777,0.1100,-0.0520,1.1790,5.1910,18.9770,-43.7860,35.0700
2.1899,0.1120,-0.0520,1.1730,2.4730,19.5880,-43.8930,35.0700
2.1970,0.1140,-0.0540,1.1940,2.3510,20.9160,-44.8550,35.1200
2.2089,0.0970,-0.0470,1.1810,2.3970,20.1370,-45.3280,34.9800
2.2212,0.0930,-0.0370,1.1710,5.2980,20.1830,-47.0990,35.0700
2.2284,0.0870,-0.0710,1.1660,6.3360,21.6490,-49.4810,34.9300
2.2402,0.1050,-0.1030,1.1950,4.3510,22.6410,-47.8170,35.0700
2.2475,0.0900,-0.1040,1.1770,1.0840,22.2290,-43.1300,35.0700
2.2593,0.0740,-0.0900,1.1520,-0.6110,22.1070,-41.6950,35.0200
2.2718,0.0670,-0.0620,1.1250,-0.2750,25.2060,-40.1220,35.1700
2.2785,0.0650,-0.0650,1.1570,-5.3280,19.0080,-38.1220,34.9800
2.2907,0.0590,-0.0670,1.1550,-3.7560,17.4960,-38.5340,35.0200
2.2975,0.0680,-0.0570,1.1450,-2.7790,15.5730,-40.5340,35.0700
2.3098,0.0780,-0.0330,1.1530,1.5730,15.5880,-42.6870,35.0700
2.3155,0.0940,-0.0490,1.1520,4.9010,15.2520,-45.8780,35.0200
2.3289,0.1110,-0.0650,1.1740,2.8850,15.9850,-44.6110,35.0700
2.3409,0.1260,-0.0550,1.1980,-2.5650,17.5880,-41.6340,35.0700
2.3482,0.1130,-0.0470,1.1830,-1.9540,20.8700,-40.5040,35.0200
2.3598,0.1030,-0.0580,1.1720,-3.1600,21.7560,-39.2060,35.0700
2.3668,0.0890,-0.0790,1.1620,-5.7560,20.4270,-38.2900,34.9800
2.3791,0.0900,-0.0820,1.1720,-5.1910,19.2210,-38.6560,35.0200
2.3912,0.0850,-0.0780,1.1770,-4.3820,19.3440,-36.8550,35.0700
2.3980,0.0900,-0.0620,1.1730,-4.7330,18.3510,-38.1370,35.1700
2.4100,0.0960,-0.0470,1.1780,-3.1150,18.4730,-40.9160,35.1200
2.4170,0.1090,-0.0860,1.1950,-0.4890,19.0380,-42.6560,34.9800
2.4293,0.0990,-0.0910,1.2000,-2.1980,20.9620,-40.1530,35.0700
2.4413,0.0850,-0.0820,1.1700,-3.3890,20.3210,-38.7940,35.0200
2.4482,0.0840,-0.0680,1.1640,-0.9770,17.9080,-39.8630,35.0700
2.4604,0.0830,-0.0640,1.1580,-0.8850,15.8170,-41.4350,35.0200
2.4674,0.1080,-0.0490,1.1810,-1.4050,16.2900,-40.8240,35.1200
2.4794,0.1140,-0.0580,1.1890,-1.6490,17.0230,-40.9470,35.0700
2.4913,0.1110,-0.0590,1.1830,-3.6640,17.3440,-41.9690,35.1200
2.4984,0.1040,-0.0820,1.1860,1.2060,19.0990,-41.8020,35.0200
2.5107,0.0960,-0.1010,1.1810,-2.2290,19.0990,-40.4270,35.0700
2.5176,0.0950,-0.1000,1.1940,-5.1450,18.7790,-39.3280,35.1200
2.5297,0.1050,-0.0900,1.1790,-4.0000,16.8550,-38.8090,35.0200
2.5415,0.1070,-0.0600,1.1680,-2.1370,18.5500,-40.0150,35.0700
2.5488,0.1170,-0.0650,1.1800,-1.6030,16.9160,-41.1450,35.0200
2.5606,0.1270,-0.0670,1.1940,2.5190,17.1600,-42.1220,35.0200
2.5676,0.1330,-0.0760,1.1770,-1.6950,18.3360,-40.7330,35.0700
2.5798,0.1180,-0.0690,1.1820,-1.7710,16.9010,-39.2820,35.0200
2.5868,0.1210,-0.0760,1.1710,-2.5040,16.3210,-40.8850,35.0200
2.5990,0.1180,-0.0470,1.1830,-1.3130,15.2060,-41.0530,35.0700
2.6108,0.1180,-0.0460,1.1780,1.7560,16.4890,-43.0690,35.0200
2.6179,0.1300,-0.0500,1.1900,-0.6720,17.3740,-42.8240,34.9300
2.6303,0.1350,-0.0480,1.1780,-4.4430,18.0920,-40.7330,34.9800
2.6372,0.1090,-0.0580,1.1970,-2.2900,21.6030,-41.2980,35.0200
2.6492,0.0990,-0.0680,1.1580,-2.0760,21.0080,-42.6560,35.0200
2.6611,0.1290,-0.0650,1.1390,-4.9010,22.1530,-43.5420,34.9800
2.6681,0.0930,-0.0700,1.1840,-3.0080,21.1450,-43.6950,35.1200
2.6802,0.1080,-0.0750,1.1670,-1.1450,21.3740,-45.3590,35.0200
2.6874,0.1300,-0.0750,1.2020,-2.0310,17.2980,-42.7940,35.0700
2.6992,0.0860,-0.0870,1.1780,-2.2900,23.1910,-41.0990,35.0200
2.7114,0.1220,-0.0720,1.1480,-5.0230,17.5880,-42.2290,35.0200
2.7180,0.0890,-0.0640,1.1670,-3.3590,18.3210,-41.9850,35.0700
2.7305,0.0890,-0.0880,1.1660,-2.9770,18.6260,-42.6410,35.1200
2.7374,0.1010,-0.0780,1.1760,-4.3820,16.2140,-41.2820,35.0200
2.7495,0.1090,-0.0670,1.1780,-1.9080,18.5040,-42.2750,35.0700
2.7618,0.1170,-0.0590,1.1640,1.7560,19.7400,-44.3050,35.1200
2.7686,0.1130,-0.0650,1.1730,-1.2980,18.9010,-43.4200,35.0200
2.7804,0.1090,-0.0720,1.1710,-1.3890,17.6640,-43.1760,35.0700
2.7873,0.1140,-0.0690,1.1800,-4.8090,17.6950,-41.2520,35.1200
2.7995,0.1180,-0.0760,1.1700,-4.3360,18.1680,-39.8170,35.1200
2.8054,0.1160,-0.0880,1.1650,-2.4270,18.2440,-42.1070,35.1700
2.8187,0.1270,-0.0710,1.1710,-1.2520,17.6490,-42.4120,35.0200
2.8311,0.1280,-0.0930,1.1650,-2.0150,17.6030,-42.3660,34.9800
2.8379,0.1220,-0.0710,1.1700,-2.0610,17.2520,-42.1680,35.1700
2.8498,0.1320,-0.0500,1.1660,-2.0000,17.3440,-42.6720,35.1200
2.8566,0.1420,-0.0370,1.1720,-2.6720,17.9850,-42.8700,35.0700
2.8689,0.1460,-0.0480,1.1780,-0.9010,19.5110,-44.2600,34.9800
2.8809,0.1510,-0.0590,1.1900,-2.1980,19.8020,-44.1680,35.0200
2.8881,0.1340,-0.0700,1.1780,-3.6030,19.7400,-44.0310,35.0700
2.8998,0.1350,-0.0660,1.1780,-4.8550,19.8170,-43.5730,35.0700
2.9070,0.1310,-0.0830,1.1850,-2.7480,20.0920,-44.2900,35.1200
2.9189,0.1510,-0.1030,1.2020,-3.7100,20.6260,-43.9390,34.9800
2.9310,0.1570,-0.1140,1.2080,-5.2060,20.6720,-41.7250,35.0700
2.9377,0.1480,-0.1010,1.1840,-4.0760,20.3820,-43.0990,35.1200
2.9503,0.1440,-0.0930,1.1790,-2.8700,19.6340,-44.0000,35.0700
2.9572,0.1490,-0.0890,1.1810,-1.8930,19.2060,-44.2600,35.0700
2.9692,0.1580,-0.0880,1.1960,-1.9540,18.9010,-44.4730,35.0700
2.9815,0.1720,-0.0840,1.1870,0.5040,18.7480,-46.3660,35.1700
2.9885,0.1740,-0.0900,1.1860,0.1070,18.9470,-46.3660,35.0200
3.0005,0.1800,-0.0970,1.1880,-0.7630,19.2820,-45.0380,35.0200
3.0075,0.1950,-0.0840,1.1920,-2.6110,19.8780,-44.8240,34.9800
3.0194,0.1930,-0.0610,1.1860,-3.3440,21.1150,-45.5110,35.0200
3.0317,0.1890,-0.0520,1.1910,-4.7020,21.0840,-46.0000,35.0700
3.0382,0.1880,-0.0420,1.1760,-3.4500,21.4350,-47.0990,35.0700
3.0505,0.1890,-0.0710,1.1670,-3.8630,21.7710,-48.9010,35.1200
3.0572,0.1990,-0.0770,1.1920,-5.0530,22.7180,-48.6870,35.1200
3.0695,0.2030,-0.0760,1.1730,-7.2060,24.3210,-47.9540,35.1700
3.0749,0.1850,-0.0820,1.1710,-7.3590,26.0150,-48.3050,35.1200
3.0886,0.1800,-0.0770,1.1570,-6.9620,25.9850,-47.8780,35.0700
3.1008,0.1530,-0.0800,1.1610,-7.3130,25.4810,-48.8400,34.9800
3.1074,0.1610,-0.0800,1.1610,-7.8930,25.4200,-48.5040,35.0200
3.1197,0.1750,-0.0900,1.1790,-10.3970,25.3280,-46.0920,35.0200
3.1264,0.1770,-0.0890,1.1640,-11.2370,27.3130,-44.7330,35.0700
3.1385,0.1980,-0.0900,1.1320,-18.0920,39.5730,-47.2370,35.1200
3.1505,0.1440,-0.0830,1.1340,-27.0230,30.9620,-47.2980,35.0700
3.1572,0.1230,-0.0480,1.1740,-11.4810,22.2600,-49.1600,35.0700
3.1695,0.1240,-0.0620,1.1650,-4.9010,25.3740,-51.2060,35.0200
3.1817,0.1250,-0.0900,1.1530,-10.3210,27.1150,-54.6720,35.1200
3.1885,0.1040,-0.0930,1.1580,-15.9690,27.2210,-56.9620,34.9800
3.2006,0.0860,-0.0860,1.1640,-14.0920,21.8630,-55.0840,35.1200
3.2075,0.0890,-0.1010,1.1510,-7.4050,18.5650,-54.7790,35.0700
3.2194,0.1020,-0.1370,1.1470,-6.2440,22.4430,-55.9390,35.0700
3.2317,0.1060,-0.1270,1.1880,-10.1830,25.7100,-53.0230,35.2100
3.2386,0.1230,-0.1500,1.1460,-11.3740,27.5270,-50.7020,35.1200
3.2505,0.1270,-0.1180,1.1720,-11.2520,22.0310,-51.5110,35.0700
3.2572,0.1170,-0.0900,1.1830,-6.4730,22.5650,-53.9080,35.0200
3.2695,0.1210,-0.0560,1.1800,-4.6260,23.4350,-56.9310,34.9800
3.2816,0.1130,-0.0460,1.1870,-9.0080,26.1680,-56.1680,34.9800
3.2887,0.1060,-0.0330,1.1900,-7.9390,26.9470,-54.8240,35.0200
3.3006,0.1020,-0.0630,1.1650,-5.8470,28.7480,-56.7480,34.9800
3.3075,0.0830,-0.0890,1.1620,-9.3130,29.0230,-55.2210,34.9800
3.3195,0.0650,-0.1010,1.1600,-10.6560,27.9540,-54.5500,35.0200
3.3317,0.0620,-0.0860,1.1340,-10.7480,27.0530,-55.1910,35.1700
3.3387,0.0600,-0.0860,1.1680,-7.4500,23.7100,-54.9010,35.0700
3.3508,0.0650,-0.1120,1.1560,-9.4960,23.9850,-55.7400,35.0200
3.3574,0.0600,-0.1220,1.1600,-9.0840,22.1370,-55.1150,34.9800
3.3698,0.0560,-0.1230,1.1510,-6.9920,22.2900,-55.2520,35.0700
3.3816,0.0590,-0.1370,1.1670,-8.7480,22.8850,-52.8240,35.1200
3.3889,0.0670,-0.1550,1.1670,-10.4270,20.1370,-50.3360,35.0700
3.4006,0.0620,-0.1490,1.1850,-10.3360,20.1830,-49.8630,35.1700
3.4074,0.0580,-0.1120,1.1830,-10.5800,20.1530,-50.5800,35.0200
3.4194,0.0550,-0.0520,1.1910,-11.4660,21.6490,-51.5420,35.0700
3.4318,0.0640,-0.0500,1.2120,-7.9850,23.1150,-53.4350,35.1200
3.4387,0.0760,-0.0900,1.2180,-10.5340,26.2600,-52.8400,35.1200
3.4504,0.0620,-0.1160,1.2490,-7.5570,27.4050,-51.7860,35.0700
3.4573,0.0490,-0.1420,1.2190,-4.3660,29.1910,-51.6790,35.0200
3.4695,0.0410,-0.1680,1.2150,-2.4890,27.9240,-52.2750,35.0200
3.4816,0.0430,-0.1810,1.1990,-0.5340,27.9850,-52.4580,35.0700
3.4885,0.0550,-0.1840,1.1990,0.5500,27.5570,-50.0310,35.0200
3.5006,0.0650,-0.1900,1.2300,-0.3510,27.7710,-47.9240,35.0200
3.5078,0.0680,-0.1620,1.2000,0.8550,28.1980,-47.6490,35.1700
3.5200,0.0480,-0.1370,1.1670,4.3820,28.4890,-48.2750,35.1200
3.5269,0.0390,-0.1290,1.1750,4.8090,27.1600,-49.0990,35.0200
3.5390,0.0390,-0.1250,1.1540,3.5570,26.0460,-48.7790,35.0700
3.5510,0.0370,-0.1310,1.1550,7.2520,25.0990,-50.8700,35.0200
3.5581,0.0510,-0.1440,1.1630,8.1530,24.3510,-50.1220,35.0200
3.5705,0.0610,-0.1530,1.1750,5.5880,22.7020,-47.6030,35.0700
3.5773,0.0700,-0.1270,1.1770,3.2210,22.6260,-46.5800,35.0200
3.5898,0.0650,-0.0900,1.1860,3.2370,22.9310,-44.7630,35.0200
3.5956,0.0600,-0.0860,1.1740,4.4890,23.4960,-45.8020,35.0700
3.6085,0.0550,-0.0850,1.1720,4.6870,24.4730,-46.3970,35.1200
3.6207,0.0710,-0.0960,1.1430,9.6950,24.4270,-47.9690,35.0200
3.6281,0.0530,-0.1210,1.1700,6.2290,23.2820,-49.4350,35.0700
3.6400,0.0650,-0.1140,1.1790,4.4890,23.2060,-47.6790,35.1200
3.6470,0.0510,-0.1090,1.1770,3.5110,24.5040,-46.1680,35.0200
3.6593,0.0430,-0.0880,1.1610,0.3660,24.1680,-44.7020,35.0700
3.6715,0.0390,-0.0690,1.1650,-1.1300,24.4270,-43.7400,35.0200
3.6784,0.0170,-0.0540,1.1540,1.4960,25.2060,-42.9920,35.1200
3.6907,0.0240,-0.0760,1.1380,0.0760,22.7790,-45.2210,35.0700
3.6977,0.0280,-0.0860,1.1440,4.1830,21.0690,-46.7480,35.0200
3.7099,0.0510,-0.1180,1.1590,4.2750,19.7860,-47.9690,35.0200
3.7164,0.0690,-0.1130,1.1800,4.9160,20.5340,-46.6870,35.0700
3.7290,0.0780,-0.1120,1.1670,5.0230,20.6720,-47.0990,35.0200
3.7412,0.0890,-0.1050,1.1770,4.3360,21.4960,-48.5340,35.0200
3.7483,0.0910,-0.1060,1.1880,-0.1370,22.0610,-46.0920,35.0700
3.7604,0.0790,-0.0690,1.1650,-1.3740,23.2820,-44.4120,35.0200
3.7671,0.0840,-0.0750,1.1830,0.6720,22.8090,-45.4500,35.1200
3.7794,0.1030,-0.0730,1.1900,1.4050,22.9470,-45.3740,35.0700
3.7916,0.1020,-0.0750,1.1870,2.0000,23.0380,-45.9690,35.0200
3.7988,0.1070,-0.0660,1.1840,2.1830,23.5110,-46.5800,35.1200
3.8109,0.1060,-0.0730,1.1710,2.6560,23.3130,-47.5570,34.9800
3.8177,0.1010,-0.0890,1.1700,2.0310,22.3050,-48.7790,35.0200
3.8300,0.0870,-0.0520,1.1740,0.1530,22.7330,-50.3050,35.0200
3.8369,0.0820,-0.0290,1.1720,0.5040,23.4810,-51.2520,34.9800
3.8492,0.0860,-0.0360,1.1850,-0.2750,24.3510,-51.0230,35.1200
3.8613,0.0930,-0.0510,1.1990,-3.1910,24.6720,-49.1300,35.1200
3.8679,0.0810,-0.0690,1.1810,-4.4270,26.8400,-49.9390,35.0700
3.8805,0.0670,-0.0740,1.1760,-7.0080,25.6340,-49.5270,35.1200
3.8874,0.0580,-0.0600,1.1660,-7.4660,25.0530,-49.9080,34.9300
3.8995,0.0630,-0.0610,1.1650,-7.2370,24.2290,-51.0690,35.0700
3.9114,0.0560,-0.0710,1.1660,-7.9690,24.7180,-52.5190,35.1200
3.9184,0.0650,-0.0940,1.1770,-4.9470,23.1760,-54.4120,35.0200
3.9304,0.0540,-0.1230,1.1750,-1.7860,23.5420,-56.2600,35.0700
3.9374,0.0590,-0.1690,1.1830,-3.3440,23.6030,-54.2600,35.0200
3.9497,0.0670,-0.2080,1.2010,-4.9470,21.9080,-49.8780,35.1200
3.9618,0.0860,-0.2040,1.2290,-4.8850,21.7100,-48.6720,35.0700
3.9682,0.0860,-0.1770,1.2110,-6.3210,20.5040,-45.5570,35.2100
3.9807,0.0680,-0.1360,1.2210,-3.2210,18.0920,-43.3130,35.1200
3.9875,0.0880,-0.1100,1.2010,-2.1220,17.8470,-46.1980,35.0700
3.9996,0.0850,-0.0850,1.1860,-2.1070,17.0690,-46.4730,35.0200
