Time,AX,AY,AZ,GX,GY,GZ,T
0.0000,0.0590,-0.1870,1.1830,5.2370,22.6410,-74.2750,34.8800
0.0004,0.0410,-0.1930,1.2130,5.0690,22.0000,-73.9080,34.8400
0.0008,0.0340,-0.1510,1.1910,6.2750,22.7020,-72.5800,34.8400
0.0013,0.0280,-0.0940,1.2030,5.4050,22.7480,-73.8170,34.8800
0.0017,0.0350,-0.0890,1.1930,4.4430,23.1910,-74.5040,34.8400
0.0021,0.0290,-0.1050,1.2030,4.2900,24.1530,-75.2060,34.8400
0.0025,0.0290,-0.1330,1.1860,5.4960,24.6410,-76.1980,34.8800
0.0029,0.0340,-0.1480,1.1780,8.0000,25.5880,-74.0150,34.9300
0.0033,0.0230,-0.1880,1.1610,7.1300,25.2980,-73.7560,34.8400
0.0037,0.0190,-0.1880,1.1600,5.5420,23.8470,-71.5270,34.7900
0.0041,0.0230,-0.1610,1.1740,4.5340,23.6950,-69.8170,34.8400
0.0045,0.0170,-0.1090,1.1630,1.9690,23.2370,-67.6180,34.8800
0.0052,0.0020,-0.1000,1.1660,2.8700,22.1070,-68.4580,34.8800
0.0055,0.0160,-0.0880,1.1520,3.4660,21.3440,-70.2600,34.8400
0.0059,0.0260,-0.0860,1.1480,3.4810,20.5950,-72.0760,34.8800
0.0063,0.0400,-0.0990,1.1680,2.4430,20.8400,-71.5730,34.8800
0.0066,0.0280,-0.1030,1.1450,3.4660,20.7330,-73.5880,34.8400
0.0070,0.0240,-0.1240,1.1490,3.1760,20.8400,-72.1220,34.7900
0.0074,0.0170,-0.1430,1.1360,2.3970,20.1980,-69.5110,34.7900
0.0077,0.0080,-0.1430,1.1320,0.5340,18.0150,-68.2290,34.8400
0.0081,0.0050,-0.1200,1.1360,0.5950,15.6030,-68.1530,34.7900
0.0084,0.0060,-0.0810,1.1530,1.8170,14.1830,-67.4660,34.7900
0.0087,0.0170,-0.0460,1.1630,0.5340,13.8780,-66.8700,34.8800
0.0090,0.0210,-0.0240,1.1540,-2.3050,14.4580,-66.4120,34.8800
0.0094,0.0300,-0.0470,1.1680,-3.4810,15.6490,-67.2820,34.8400
0.0099,0.0330,-0.0840,1.1650,-0.1370,17.1450,-69.6490,34.8400
0.0103,0.0250,-0.1220,1.1750,-2.1370,18.3360,-69.7860,34.7900
0.0107,0.0250,-0.1260,1.1660,-7.0840,19.6180,-63.8170,34.8400
0.0111,-0.0020,-0.1210,1.1490,-6.9920,20.3360,-60.7630,34.8800
0.0115,-0.0080,-0.1310,1.1500,-5.3280,19.0690,-59.8470,34.8800
0.0119,0.0100,-0.1320,1.1670,-2.1980,19.7860,-58.1370,34.8400
0.0123,0.0230,-0.1100,1.1610,-3.2370,20.8240,-55.1300,34.7400
0.0128,0.0200,-0.1040,1.1570,-6.9160,22.5500,-53.1910,34.7900
0.0137,0.0060,-0.0890,1.1390,-7.6640,21.7860,-55.0690,34.8400
0.0140,-0.0100,-0.0770,1.1450,-5.0690,21.8930,-56.3970,34.7900
0.0143,-0.0070,-0.0910,1.1480,-5.8020,20.3820,-57.0530,34.8800
0.0147,-0.0040,-0.0990,1.1430,-5.0380,19.7710,-58.4890,34.7400
0.0151,0.0090,-0.1190,1.1550,-2.8090,19.0230,-61.0990,34.7900
0.0154,0.0230,-0.1150,1.1660,-0.3970,21.0230,-61.9080,34.7900
0.0157,0.0280,-0.1300,1.1850,-3.4960,22.7180,-60.5340,34.8400
0.0160,0.0180,-0.0990,1.1890,-4.8550,26.3660,-55.4500,34.8800
0.0164,-0.0020,-0.0910,1.1530,-7.8470,27.5730,-51.8470,34.8800
0.0167,-0.0110,-0.0880,1.1660,-8.3360,27.3890,-51.5880,34.8400
0.0170,-0.0310,-0.1050,1.1530,-6.5190,25.6490,-53.2210,34.9800
0.0173,-0.0370,-0.1150,1.1450,-1.8020,22.5800,-55.4350,34.7900
0.0177,-0.0450,-0.1270,1.1310,-0.4120,19.8020,-59.0230,34.8400
0.0181,-0.0490,-0.1210,1.1270,0.7630,17.0080,-61.6180,34.8800
0.0184,-0.0160,-0.1340,1.1680,3.7100,16.5190,-59.9690,34.9300
0.0187,0.0120,-0.1490,1.1720,-2.3050,17.5270,-55.6340,34.8400
0.0190,0.0070,-0.1240,1.1830,-6.0310,18.7330,-52.3660,34.7900
0.0193,-0.0000,-0.1200,1.1690,-5.3440,18.6260,-51.9240,34.9300
0.0196,-0.0170,-0.0990,1.1690,-6.6720,18.6720,-49.6490,34.8400
0.0199,-0.0220,-0.1040,1.1530,-3.0230,17.7860,-49.2210,34.7900
0.0202,-0.0010,-0.1040,1.1710,-5.2370,16.4890,-45.4350,34.9300
0.0205,-0.0010,-0.1090,1.1710,-4.4120,17.3590,-47.5420,34.9300
0.0208,0.0150,-0.1040,1.1790,-2.3360,17.5420,-51.8170,34.8800
0.0210,0.0170,-0.1150,1.1860,-1.8780,18.7020,-55.4660,34.8400
0.0216,0.0180,-0.1220,1.1810,-3.6640,20.7630,-55.1910,34.8400
0.0219,0.0080,-0.1140,1.2010,-6.6720,21.5110,-53.1910,34.9800
0.0222,-0.0140,-0.1140,1.1970,-5.9390,22.0150,-51.0380,34.8400
0.0225,-0.0210,-0.1300,1.1870,-4.7940,21.7250,-50.9920,34.7900
0.0228,-0.0010,-0.1620,1.2170,-3.0380,21.4500,-52.5040,34.8800
0.0230,0.0100,-0.1740,1.2260,0.1370,23.4200,-52.7630,34.7400
0.0233,-0.0020,-0.1950,1.2170,-0.0310,25.0230,-51.0990,34.8800
0.0236,-0.0190,-0.2010,1.1990,-1.2820,25.0840,-49.7400,34.9800
0.0239,-0.0100,-0.1970,1.2160,0.4270,25.8020,-47.8470,34.8400
0.0242,0.0040,-0.1780,1.1950,-0.8550,26.6260,-43.0530,34.7900
0.0245,-0.0000,-0.1540,1.1890,-1.2820,27.1910,-41.6950,34.8400
0.0247,-0.0100,-0.1120,1.1630,2.3970,27.2370,-43.5110,34.8400
0.0250,-0.0050,-0.0910,1.1490,1.8170,27.5270,-44.5500,34.8800
0.0253,0.0030,-0.0920,1.1410,-0.0760,26.5340,-44.9160,34.9300
0.0256,-0.0100,-0.0770,1.1300,-1.1150,27.4660,-46.9010,34.8800
0.0258,0.0010,-0.0670,1.1340,-3.1910,27.6180,-45.9240,34.8800
0.0261,-0.0050,-0.0760,1.1220,-4.3660,28.6720,-45.5110,34.8400
0.0263,0.0110,-0.1040,1.1450,-4.6260,29.2370,-45.1760,34.8400
0.0266,0.0250,-0.1190,1.1540,-7.8780,30.5040,-43.1760,34.7900
0.0268,0.0210,-0.1030,1.1490,-11.5730,31.3890,-41.1910,34.8400
0.0271,0.0020,-0.1000,1.1370,-9.9850,30.5190,-41.0990,34.8800
0.0274,0.0030,-0.1040,1.1500,-7.8170,29.5730,-42.7180,34.8800
0.0276,0.0210,-0.0910,1.1770,-9.6790,29.9080,-41.6950,34.7400
0.0279,0.0060,-0.1060,1.1850,-9.2370,29.9390,-41.1300,34.8800
0.0281,0.0110,-0.1280,1.1720,-9.4500,30.5950,-40.8090,34.8800
0.0284,0.0120,-0.1490,1.1750,-11.4810,30.6870,-38.6410,34.8400
0.0286,0.0020,-0.1640,1.1860,-9.8780,30.7940,-38.5040,34.8800
0.0289,-0.0020,-0.1530,1.1790,-9.8320,31.9850,-35.9540,34.8400
0.0291,-0.0240,-0.1800,1.1640,-9.7860,31.8470,-33.7250,34.9300
0.0294,-0.0230,-0.1810,1.1740,-5.8930,30.2900,-36.2600,34.8800
0.0299,-0.0270,-0.1610,1.1560,-9.1450,29.6340,-32.4580,34.8400
0.0301,-0.0320,-0.1350,1.1440,-5.6790,26.6870,-33.5420,34.8400
0.0304,-0.0290,-0.1490,1.1580,-2.3050,24.0000,-34.6560,34.7900
0.0306,-0.0220,-0.1560,1.1600,-3.7250,20.5500,-34.0460,34.9300
0.0309,0.0100,-0.1500,1.1820,-3.7250,19.5570,-38.1980,34.7400
0.0311,0.0200,-0.1600,1.2070,-0.9310,19.9240,-40.3660,34.8800
0.0314,0.0120,-0.1730,1.1780,-1.7860,20.3820,-38.7630,34.7400
0.0316,-0.0010,-0.1710,1.1800,-3.8170,19.2670,-37.2820,34.8800
0.0318,0.0070,-0.1530,1.1870,-3.4350,18.6260,-35.7710,34.8800
0.0320,0.0260,-0.1560,1.1840,-2.9470,18.5040,-36.5340,34.7400
0.0323,0.0310,-0.1410,1.1910,-1.7860,19.6790,-38.0460,34.8800
0.0325,0.0380,-0.1430,1.1780,-2.5800,20.7630,-37.7100,34.7900
0.0327,0.0210,-0.1410,1.1700,-2.1830,20.6110,-37.5880,34.8400
0.0329,0.0180,-0.1390,1.1720,-1.9240,19.0380,-37.8930,34.8800
0.0332,0.0280,-0.1270,1.1840,-0.8850,16.9010,-38.3510,34.8800
0.0334,0.0440,-0.1250,1.2050,2.8850,17.5730,-41.1300,34.7900
0.0336,0.0520,-0.1210,1.1980,2.6720,18.3820,-41.2520,34.8800
0.0338,0.0480,-0.1280,1.1870,2.8850,19.6950,-45.4660,34.9300
0.0341,0.0470,-0.1200,1.2000,3.2210,20.3820,-47.2370,34.8400
0.0343,0.0390,-0.1390,1.1810,3.6180,20.9310,-47.7100,34.8800
0.0345,0.0450,-0.1510,1.1780,1.9540,21.0990,-46.5500,34.8400
0.0347,0.0340,-0.1480,1.1880,2.0460,21.6640,-46.4580,34.7900
0.0349,0.0440,-0.1470,1.1930,-0.1680,22.3210,-43.5270,34.7900
0.0352,0.0240,-0.1270,1.1880,-2.2290,23.3130,-42.2600,34.8400
0.0354,0.0030,-0.1230,1.1670,0.2900,23.3590,-44.6260,34.8400
0.0356,-0.0080,-0.1340,1.1640,1.0530,22.2140,-45.6640,34.8800
0.0358,-0.0130,-0.1350,1.1650,0.8090,21.3130,-46.3360,34.9300
0.0360,-0.0100,-0.1530,1.1640,-0.2900,21.1300,-47.4960,34.7900
0.0363,-0.0150,-0.1470,1.1700,0.3510,20.9010,-48.4580,34.8800
0.0365,-0.0330,-0.1350,1.1680,-0.1980,21.2670,-46.6410,34.9300
0.0367,-0.0440,-0.1380,1.1460,-0.7330,19.9690,-46.7940,34.7900
0.0369,-0.0410,-0.1340,1.1460,1.3740,18.1070,-46.9920,34.8800
0.0372,-0.0350,-0.1480,1.1480,2.6560,16.2750,-46.8550,34.8400
0.0374,-0.0130,-0.1710,1.1610,3.9690,15.5110,-47.0840,34.9800
0.0376,0.0230,-0.1650,1.1770,1.2520,16.3820,-44.3050,34.8800
0.0379,0.0200,-0.1200,1.1730,1.3890,18.0460,-44.1980,34.9300
0.0382,0.0140,-0.1060,1.1570,-0.6870,18.4890,-43.9540,34.7900
0.0383,0.0060,-0.1090,1.1650,-1.0080,18.0760,-45.4200,34.8400
0.0386,0.0080,-0.1100,1.1620,0.2750,17.7400,-46.9010,34.8400
0.0388,0.0020,-0.1110,1.1710,-1.2520,17.3590,-44.4890,34.8800
0.0390,0.0090,-0.1280,1.1600,-1.8470,17.8470,-43.8470,34.9300
0.0392,0.0100,-0.1280,1.1650,-1.9080,17.7860,-43.5270,34.8400
0.0394,-0.0020,-0.1130,1.1680,-0.1830,17.2820,-43.3440,34.8800
0.0396,0.0110,-0.1000,1.1620,1.0530,16.4890,-43.6180,34.7400
0.0398,0.0270,-0.0970,1.1830,-0.4580,16.6110,-43.7860,34.7400
0.0400,0.0440,-0.0720,1.1800,-3.4660,18.3050,-42.3820,34.7900
0.0402,0.0410,-0.0740,1.1830,-4.5040,20.1070,-42.1980,34.8400
0.0404,0.0420,-0.1090,1.1980,-5.4960,22.1980,-41.6640,34.8800
0.0406,0.0360,-0.1170,1.1790,-5.5270,23.8630,-41.7100,34.8800
0.0408,0.0290,-0.1130,1.1780,-2.3660,24.5650,-44.0610,34.8400
0.0410,0.0140,-0.1300,1.1780,-0.7480,24.6110,-46.7480,34.8800
0.0412,0.0110,-0.1660,1.1670,1.2210,24.0310,-47.4810,34.8800
0.0414,0.0050,-0.1740,1.1640,-1.4810,23.5420,-45.7860,34.8800
0.0416,0.0070,-0.1560,1.1610,-2.4270,22.9010,-43.6030,34.8800
0.0418,0.0140,-0.1430,1.1360,-2.6110,22.2290,-44.6720,34.7400
0.0420,0.0280,-0.1080,1.1540,-1.2820,21.1300,-46.6870,34.8400
0.0422,0.0230,-0.0980,1.1340,-0.0610,19.3590,-48.3360,34.7900
0.0424,0.0330,-0.1300,1.1400,3.1600,18.5650,-52.4430,34.7400
0.0426,0.0460,-0.1200,1.1500,2.9770,18.5190,-51.2980,34.7900
0.0428,0.0560,-0.1200,1.1580,-0.5040,19.1600,-50.0920,34.8800
0.0431,0.0550,-0.1010,1.1670,0.3050,20.2750,-50.7790,34.8400
0.0433,0.0610,-0.1040,1.1790,-0.1680,21.6180,-51.2370,34.8400
0.0434,0.0600,-0.1320,1.1780,-1.6790,23.3890,-50.4430,34.8800
0.0436,0.0540,-0.1310,1.1770,-2.9010,24.7180,-48.2750,34.8400
0.0438,0.0210,-0.1330,1.1740,-3.8930,24.9310,-47.5880,34.7900
0.0440,-0.0040,-0.1500,1.1640,-3.8320,24.2140,-48.3360,34.6900
0.0442,-0.0040,-0.1400,1.1550,-1.7860,22.0760,-50.0460,34.7400
0.0444,-0.0060,-0.1390,1.1700,-2.7940,21.5420,-50.0920,34.7900
0.0447,0.0240,-0.1240,1.1860,-1.5570,20.8700,-53.4810,34.8800
0.0449,0.0340,-0.1640,1.1980,-1.4810,21.5420,-51.8930,34.8400
0.0451,0.0240,-0.1490,1.1950,-0.9310,21.8470,-51.2670,34.9300
0.0453,0.0290,-0.1310,1.2020,-1.0990,21.3440,-50.7180,34.8800
0.0489,0.0310,-0.1120,1.2020,1.2980,20.8550,-53.0230,34.8400
0.0559,0.0380,-0.1170,1.1990,2.9620,20.6260,-53.0080,34.9300
0.0682,0.0380,-0.1190,1.1880,1.0380,20.8700,-51.3890,34.7900
0.0805,0.0380,-0.1470,1.2030,2.9310,23.4350,-50.7940,34.8400
0.0872,0.0490,-0.1330,1.2020,0.9470,23.6340,-49.1760,34.8400
0.0995,0.0300,-0.1230,1.1880,0.3360,24.7940,-48.3660,34.9800
0.1064,0.0260,-0.1100,1.1850,0.4120,25.2670,-48.6410,34.8400
0.1187,0.0180,-0.0990,1.1700,-2.6560,25.1450,-48.6870,34.7900
0.1254,0.0110,-0.0880,1.1710,-2.8850,24.3210,-48.9470,34.8800
0.1377,0.0190,-0.0830,1.1790,0.8550,24.6870,-49.0840,34.8400
0.1500,0.0320,-0.1210,1.1870,-0.9920,24.1680,-46.6870,34.8800
0.1566,0.0240,-0.1310,1.1800,0.0460,23.8930,-48.2440,34.7900
0.1690,0.0330,-0.1270,1.1840,1.7560,23.6490,-48.8090,34.8400
0.1760,0.0330,-0.1360,1.1780,2.2900,23.5730,-49.5110,34.7900
0.1883,0.0250,-0.1220,1.1790,1.7100,23.6950,-48.1070,34.8800
0.2005,0.0360,-0.1080,1.1720,-2.0150,24.6720,-44.9310,34.8400
0.2073,0.0190,-0.1040,1.1720,-3.2670,25.1760,-44.0000,34.8800
0.2195,-0.0010,-0.1080,1.1600,-3.1910,25.2670,-43.7400,34.8800
0.2264,-0.0200,-0.1040,1.1440,-0.0150,23.4960,-45.3890,34.8400
0.2384,-0.0210,-0.1170,1.1390,1.4200,20.8240,-46.5950,34.8800
0.2506,-0.0040,-0.1170,1.1470,2.4270,19.2820,-48.4270,34.8800
0.2574,-0.0010,-0.1060,1.1610,3.9240,18.5190,-49.3130,34.8400
0.2695,0.0250,-0.1090,1.1570,2.4730,18.8090,-49.0230,34.9800
0.2769,0.0210,-0.1080,1.1750,-0.9770,19.0690,-47.5570,34.8400
0.2887,0.0320,-0.0720,1.1730,-0.4890,19.8470,-47.3590,34.8800
0.2961,0.0300,-0.0710,1.1710,0.5500,21.1910,-48.2900,34.7900
0.3080,0.0250,-0.0750,1.1680,-0.8700,22.0760,-47.7710,34.7400
0.3199,-0.0000,-0.0910,1.1700,-2.9310,22.9620,-47.2820,34.9300
0.3269,-0.0080,-0.1150,1.1970,-4.6260,23.3590,-45.7400,34.7900
0.3390,-0.0190,-0.1280,1.1770,-4.8700,23.5570,-46.2140,34.8400
0.3457,-0.0240,-0.1320,1.1710,-3.9240,23.0840,-46.9310,34.7900
0.3575,-0.0310,-0.1390,1.1740,-3.7100,21.6790,-44.9770,34.8800
0.3696,-0.0250,-0.1410,1.1790,-3.5420,20.0150,-44.3510,34.8400
0.3766,-0.0130,-0.1370,1.1860,-2.4580,20.0000,-43.3130,34.9300
0.3887,0.0070,-0.1270,1.1860,-3.0230,20.9920,-42.5650,34.8800
0.4006,0.0070,-0.1120,1.1810,-2.7480,21.8780,-42.5340,34.8400
0.4077,-0.0010,-0.0920,1.1690,-1.2370,22.4580,-43.2210,34.8800
0.4196,-0.0010,-0.0940,1.1730,-1.3740,21.6950,-43.3130,34.7900
0.4266,-0.0140,-0.1010,1.1660,-0.3510,22.3510,-43.1150,34.9300
0.4385,-0.0140,-0.1110,1.1590,-1.7710,22.8850,-42.2140,34.8800
0.4506,-0.0120,-0.1050,1.1480,-4.0310,22.9470,-40.3660,34.7900
0.4573,-0.0250,-0.1210,1.1340,-5.2060,22.0760,-39.8470,34.8400
0.4693,-0.0360,-0.1140,1.1120,-2.7790,21.9390,-40.9920,34.7900
0.4764,-0.0330,-0.1220,1.1270,-3.2520,17.8630,-40.4430,34.8800
0.4885,-0.0120,-0.0860,1.1450,-2.7020,19.4050,-41.1150,34.8400
0.5004,-0.0000,-0.0480,1.1490,-7.1910,18.7630,-39.2060,34.8800
0.5071,-0.0020,-0.0640,1.1520,-4.7940,19.4200,-43.5730,34.8400
0.5193,0.0120,-0.0530,1.1770,-11.8930,21.1300,-38.8700,34.8400
0.5259,0.0070,-0.0920,1.1740,-13.2670,24.0920,-38.7020,34.8800
0.5378,-0.0120,-0.1110,1.1780,-14.5190,25.3130,-35.8020,34.9300
0.5497,-0.0210,-0.1670,1.1800,-13.8320,26.0920,-36.1980,34.8400
0.5566,-0.0120,-0.1780,1.2070,-12.3050,26.0310,-36.5950,34.8800
0.5685,-0.0220,-0.1730,1.1900,-9.6340,26.6720,-36.4580,34.8400
0.5804,-0.0220,-0.1730,1.1910,-11.5570,25.5730,-34.4730,34.8400
0.5873,-0.0320,-0.1970,1.1960,-10.3510,26.0460,-32.7330,34.8800
0.5993,-0.0260,-0.1930,1.1950,-9.0380,24.7480,-31.7400,34.7400
0.6061,-0.0180,-0.1880,1.1860,-5.4810,24.1680,-33.0690,34.8800
0.6182,-0.0050,-0.1430,1.1810,-1.1450,23.9690,-34.0610,34.8800
0.6305,-0.0010,-0.1290,1.1750,-3.2210,23.6790,-32.5950,34.8400
0.6374,0.0010,-0.1130,1.1610,-5.9390,23.5880,-30.2750,34.8800
0.6490,-0.0010,-0.1030,1.1610,-7.5880,23.2370,-29.0380,34.8800
0.6558,0.0020,-0.0950,1.1690,-3.0840,21.6030,-32.1070,34.8400
0.6683,0.0090,-0.1220,1.1700,-6.2140,24.2290,-32.4730,34.8800
0.6804,-0.0030,-0.1370,1.1710,-6.8700,25.1600,-31.4500,34.8400
0.6870,-0.0100,-0.1570,1.1580,-6.4580,23.6030,-32.1680,34.9300
0.6991,-0.0060,-0.1610,1.1710,-7.2060,21.9690,-31.5420,34.8800
0.7059,-0.0080,-0.1610,1.1720,-5.3890,20.9160,-29.6950,34.9300
0.7179,0.0060,-0.1610,1.1800,-4.3210,19.8780,-29.7400,34.8800
0.7301,0.0220,-0.1610,1.1890,-2.3210,20.3050,-33.2060,34.8800
0.7369,0.0270,-0.1340,1.1890,1.3890,20.9920,-36.0460,34.8400
0.7490,0.0160,-0.1180,1.1710,1.0380,21.5420,-35.7400,34.8400
0.7560,0.0080,-0.1130,1.1790,0.4730,22.1680,-35.4050,34.8800
0.7684,0.0060,-0.1250,1.1720,-0.8400,22.2140,-34.4120,34.8400
0.7805,-0.0060,-0.1170,1.1640,-2.9310,21.7400,-33.6340,34.7900
0.7874,-0.0040,-0.1210,1.1730,0.1680,20.5190,-34.8550,34.8800
0.7994,0.0120,-0.1140,1.1720,-2.4430,19.7860,-34.0000,34.8400
0.8066,0.0160,-0.1150,1.1870,-1.0080,19.7400,-34.9160,34.8400
0.8185,0.0120,-0.1320,1.1850,-2.9310,20.4270,-36.1680,34.7900
0.8304,0.0020,-0.1030,1.1850,-3.0840,22.3510,-35.6030,34.8400
0.8375,-0.0220,-0.1250,1.1700,-2.4270,21.6180,-36.3210,34.7900
0.8497,-0.0430,-0.1400,1.1650,-2.4430,20.2140,-36.9920,34.7900
0.8562,-0.0230,-0.1610,1.1750,-0.1830,19.0230,-37.2370,34.9300
0.8685,-0.0140,-0.1670,1.1770,0.7330,19.5420,-38.7790,34.8800
0.8806,-0.0000,-0.1520,1.1800,2.2140,18.7790,-38.4890,34.7900
0.8874,-0.0070,-0.1400,1.1700,1.5730,18.3210,-38.3970,34.9300
0.8996,0.0020,-0.1150,1.1690,0.1530,18.4580,-37.8470,34.8800
0.9065,0.0030,-0.1110,1.1770,-2.0460,18.9620,-36.5040,34.8800
0.9188,0.0040,-0.0960,1.1650,-2.9310,20.0310,-35.5270,34.9300
0.9245,-0.0030,-0.0750,1.1490,-2.7330,20.0310,-35.9390,34.8800
0.9377,-0.0040,-0.0830,1.1460,-4.2750,19.8320,-36.9770,34.8800
0.9496,-0.0170,-0.0940,1.1560,-1.9390,19.0530,-40.1220,34.7400
0.9563,-0.0120,-0.0960,1.1630,-2.4890,18.5340,-41.1910,34.7900
0.9685,-0.0240,-0.0890,1.1590,-4.9310,18.5650,-39.5730,34.7900
0.9805,-0.0250,-0.1200,1.1720,-5.7860,18.1830,-37.5270,34.8400
0.9874,-0.0220,-0.1410,1.1770,-6.7180,18.2290,-37.9080,34.8800
0.9994,-0.0250,-0.1540,1.1810,-4.6410,16.8400,-38.2600,34.8800
1.0062,-0.0170,-0.1600,1.1880,-3.2520,15.7400,-38.8090,34.9300
1.0181,0.0010,-0.1520,1.2010,-2.0920,16.0920,-38.6560,34.8800
1.0302,0.0120,-0.1400,1.2040,0.0000,16.9920,-39.1150,34.9800
1.0372,0.0100,-0.1500,1.2270,0.3360,17.9540,-39.6640,34.8400
1.0494,-0.0030,-0.1240,1.2220,0.3660,19.6490,-37.1450,34.7900
1.0561,-0.0060,-0.1190,1.1890,-1.6340,20.6260,-34.8850,34.9300
1.0681,-0.0040,-0.1330,1.1910,-0.5190,20.0760,-34.7480,34.9300
1.0805,-0.0210,-0.1380,1.1770,-0.9770,20.3970,-35.9690,34.8800
1.0873,-0.0120,-0.1330,1.1640,1.4050,19.0990,-36.2140,34.9300
1.0993,-0.0050,-0.1330,1.1550,2.5500,18.4430,-36.6110,34.9300
1.1061,0.0070,-0.1290,1.1730,-0.0150,19.3130,-35.4200,34.8800
1.1181,-0.0050,-0.1160,1.1570,0.4890,19.8630,-35.1760,34.8400
1.1304,0.0000,-0.1340,1.1450,2.3510,19.3740,-35.8930,34.8400
1.1374,0.0020,-0.1380,1.1460,0.3050,19.5420,-35.4050,34.8800
1.1496,-0.0050,-0.1240,1.1440,0.5650,19.9390,-34.6260,34.8400
1.1565,-0.0160,-0.1270,1.1440,-1.5110,19.5270,-34.5950,34.8400
1.1684,-0.0150,-0.0990,1.1470,-5.2670,18.8700,-33.5880,34.9800
1.1742,-0.0370,-0.1120,1.1470,-4.5800,17.9240,-34.5040,34.9300
1.1875,-0.0210,-0.1180,1.1590,-2.4890,17.4660,-36.7940,34.8800
1.1995,-0.0250,-0.1220,1.1770,-6.9010,18.0000,-35.1600,34.8800
1.2062,-0.0250,-0.1390,1.1750,-4.4270,18.2600,-35.9390,34.9300
1.2183,-0.0270,-0.1310,1.1770,-1.9850,18.2600,-35.6790,34.8800
1.2306,-0.0390,-0.1510,1.1620,-2.6260,17.9240,-34.6110,34.8800
1.2375,-0.0490,-0.1660,1.1590,-1.9080,16.5040,-34.0760,34.8400
1.2494,-0.0420,-0.1510,1.1630,-0.4580,14.6720,-34.9620,34.9800
1.2559,-0.0130,-0.1370,1.1730,-0.2600,13.8320,-35.5110,34.8800
1.2682,0.0150,-0.1130,1.1880,-0.3360,14.1680,-36.1220,34.8800
1.2804,0.0220,-0.1260,1.2040,-2.0150,15.9540,-34.9770,34.7900
1.2871,0.0080,-0.1250,1.1740,-1.6790,17.8320,-34.2900,34.8400
1.2993,-0.0120,-0.1300,1.1510,-3.1300,17.8780,-31.9240,34.8400
1.3060,-0.0190,-0.1410,1.1420,-3.2980,16.9470,-31.9240,34.8800
1.3181,-0.0070,-0.1200,1.1600,-1.6790,16.0000,-32.2440,34.8400
1.3303,0.0030,-0.1000,1.1690,-0.4890,16.0920,-33.0080,34.8800
1.3369,0.0120,-0.0930,1.1700,-0.5340,16.7630,-33.2060,34.7900
1.3493,0.0040,-0.1120,1.1700,-1.6640,17.7560,-33.7710,34.9300
1.3560,0.0060,-0.1350,1.1620,-1.6180,17.8170,-33.6950,34.8800
1.3685,0.0020,-0.1450,1.1750,-1.1910,17.6950,-34.6560,34.8800
1.3803,0.0010,-0.1310,1.1690,-0.4430,17.6340,-33.7250,34.9300
1.3876,-0.0020,-0.1190,1.1640,-1.1600,18.2440,-33.5270,34.8800
1.3994,0.0120,-0.1150,1.1840,-0.9770,18.1370,-33.9690,34.8800
1.4060,0.0110,-0.1110,1.1750,-0.4890,18.3050,-34.7020,34.7400
1.4185,0.0060,-0.1050,1.1760,-0.1530,18.5500,-34.4890,34.8800
1.4306,0.0060,-0.1220,1.1700,-0.3820,18.0460,-34.5190,34.8800
1.4375,0.0150,-0.1330,1.1650,-2.0610,18.0760,-33.6340,34.9300
1.4497,0.0100,-0.1380,1.1650,0.3360,18.1530,-34.7180,34.8800
1.4564,0.0090,-0.0970,1.1540,-0.5040,18.1370,-34.2900,34.8800
1.4688,0.0150,-0.0830,1.1630,-0.0150,17.8320,-35.0690,34.9300
1.4741,0.0260,-0.1020,1.1820,-0.3970,17.8630,-36.2290,34.7900
1.4878,0.0350,-0.0960,1.1730,-2.4120,18.9160,-35.6340,34.8400
1.4998,0.0270,-0.0980,1.1730,-2.1980,19.5570,-34.8400,34.8400
1.5066,0.0110,-0.1160,1.1750,-3.7560,19.5570,-35.3890,34.8800
1.5191,-0.0060,-0.1000,1.1640,-2.2600,18.4890,-36.9310,34.8400
1.5258,0.0050,-0.1350,1.1680,2.2900,17.2820,-40.6560,34.9300
1.5379,0.0150,-0.1550,1.1980,-1.0380,17.7710,-37.7250,34.8800
1.5499,-0.0030,-0.1360,1.1770,-1.9850,18.6110,-36.1220,34.9300
1.5565,-0.0000,-0.1180,1.1700,-0.3820,18.1070,-35.7560,34.8800
1.5689,0.0000,-0.1220,1.1650,-0.5950,16.8700,-35.7100,34.8800
1.5755,0.0140,-0.1170,1.1680,-1.9390,16.2290,-34.9770,34.8400
1.5879,0.0180,-0.1160,1.1670,-2.7630,16.6260,-35.4200,34.8800
1.5998,0.0300,-0.1050,1.1690,-1.0990,16.8550,-35.7860,34.8800
1.6071,0.0320,-0.0990,1.1590,-2.3050,17.4200,-36.2290,34.8400
1.6189,0.0270,-0.1030,1.1680,-2.4120,16.5650,-37.2820,34.7900
1.6262,0.0240,-0.0980,1.1590,0.1070,15.9690,-38.8700,34.8800
1.6384,0.0310,-0.1060,1.1660,-1.6030,15.4350,-38.6560,34.7400
1.6501,0.0450,-0.0910,1.1910,-1.8780,16.2750,-39.4350,34.8800
1.6570,0.0560,-0.1040,1.2110,-2.0920,18.0460,-39.7400,34.8400
1.6691,0.0440,-0.1200,1.2100,-3.0080,20.0310,-38.3050,34.9300
1.6764,0.0360,-0.1530,1.1950,-3.1910,20.5650,-38.4730,34.8800
1.6882,0.0280,-0.1580,1.1960,-1.9390,20.8700,-36.9620,34.8400
1.7005,0.0200,-0.1670,1.1800,-3.2520,20.6260,-35.1760,34.8800
1.7073,0.0060,-0.1440,1.1700,-3.0380,19.8630,-34.7330,34.8800
1.7196,-0.0040,-0.1150,1.1730,-1.6640,19.3440,-35.8780,34.9300
1.7263,-0.0000,-0.0940,1.1680,-1.4660,18.2750,-36.4730,34.8800
1.7382,-0.0130,-0.0960,1.1660,-1.9240,18.4890,-36.5650,34.8800
1.7503,-0.0170,-0.1050,1.1590,-2.3360,18.1370,-36.3820,34.9300
1.7569,-0.0150,-0.1240,1.1540,-1.9390,17.8630,-36.7020,34.9800
1.7691,-0.0120,-0.1230,1.1640,-3.7100,16.6110,-35.3280,34.8800
1.7761,-0.0100,-0.1120,1.1580,-3.4500,16.0760,-35.8320,34.9300
1.7879,-0.0070,-0.1050,1.1510,-2.0150,15.2670,-37.4660,34.8800
1.8001,-0.0120,-0.1290,1.1560,-1.6030,15.0990,-37.6180,34.8800
1.8068,-0.0040,-0.1330,1.1510,-3.1600,14.4890,-36.6410,34.9300
1.8190,0.0030,-0.1320,1.1540,-2.4890,14.3210,-37.2370,34.8800
1.8259,0.0210,-0.1480,1.1400,-4.9920,17.0530,-42.9310,34.9300
1.8379,0.0120,-0.0900,1.1670,-2.9160,15.7860,-38.6260,34.8400
1.8501,0.0060,-0.1170,1.1450,-4.3970,17.7400,-41.1300,34.9800
1.8570,-0.0070,-0.0900,1.1560,-3.6490,18.0310,-41.8020,34.8400
1.8689,-0.0150,-0.1020,1.1500,-4.5800,15.7560,-37.3890,34.8400
1.8760,0.0050,-0.1100,1.1650,-4.4120,15.3130,-37.2520,34.7900
1.8881,0.0140,-0.1130,1.1650,-3.8470,16.1680,-36.6410,34.9300
1.9001,0.0170,-0.1140,1.1690,-5.9540,17.2820,-36.1980,34.9300
1.9067,0.0100,-0.1160,1.1680,-6.0610,17.8020,-36.2140,34.8800
1.9194,0.0110,-0.1180,1.1630,-5.6340,17.9850,-37.7710,34.8400
1.9259,0.0160,-0.1230,1.1710,-3.2520,18.0920,-40.5040,34.8400
1.9381,0.0150,-0.1460,1.1700,-1.8780,17.7100,-41.5880,34.7900
1.9498,0.0440,-0.1650,1.1930,-0.4890,17.5420,-40.6720,34.8400
1.9570,0.0230,-0.1640,1.1640,-1.2520,19.1150,-41.3440,34.8400
1.9692,0.0390,-0.1260,1.1830,-3.8930,18.1980,-37.6180,34.8800
1.9764,0.0370,-0.1100,1.1830,-1.6950,18.3210,-38.9770,34.9300
1.9880,0.0500,-0.1020,1.1860,1.5880,18.4430,-41.0230,34.8800
2.0005,0.0480,-0.1090,1.1940,-0.0920,19.5270,-40.8400,34.8800
2.0076,0.0470,-0.0980,1.1920,-3.5880,19.9690,-39.4350,34.8400
2.0194,0.0560,-0.1010,1.1940,-3.2520,20.0920,-38.1070,34.8800
2.0266,0.0530,-0.1030,1.2010,-2.8090,20.3510,-37.3890,34.7900
2.0383,0.0590,-0.1120,1.1950,-3.3130,20.5340,-37.2520,34.9300
2.0506,0.0490,-0.1110,1.1960,-0.1220,20.9770,-39.0840,34.8800
2.0572,0.0440,-0.1240,1.1900,1.0840,21.0690,-39.8630,34.8800
2.0696,0.0400,-0.1290,1.1870,1.7100,20.5340,-40.9470,34.8800
2.0769,0.0510,-0.1450,1.2020,1.5730,20.7330,-40.0150,34.8800
2.0888,0.0580,-0.1470,1.2090,0.8550,21.9540,-39.3130,34.8400
2.0961,0.0470,-0.1350,1.1980,-0.0310,23.1450,-37.5570,34.8400
2.1078,0.0410,-0.1240,1.1880,-1.9080,22.8550,-37.0080,34.8800
2.1201,0.0310,-0.1200,1.1760,-0.3210,22.2600,-37.6030,34.8400
2.1271,0.0250,-0.1130,1.1610,0.4120,21.4200,-38.6560,34.8800
2.1390,0.0280,-0.1010,1.1630,2.0760,20.6870,-38.9620,34.8800
2.1460,0.0290,-0.1030,1.1570,0.3970,19.6490,-38.4890,34.8400
2.1582,0.0260,-0.0850,1.1800,1.4200,20.5950,-39.7100,34.8800
2.1706,0.0440,-0.0900,1.1740,0.3210,20.8090,-40.5800,34.7900
2.1778,0.0370,-0.0850,1.1680,1.1910,21.4050,-41.2210,34.8400
2.1898,0.0320,-0.1070,1.1660,-0.1070,22.1680,-40.6110,34.8800
2.1967,0.0290,-0.1470,1.1670,-2.3820,21.4500,-39.0230,34.9800
2.2089,0.0230,-0.1560,1.1770,-2.3510,21.3740,-38.9920,34.9300
2.2155,0.0240,-0.1430,1.1670,-2.9770,21.1910,-37.0530,34.8800
2.2280,0.0070,-0.1130,1.1620,-2.6870,20.9010,-36.5340,34.8400
2.2398,0.0130,-0.0960,1.1460,-0.4890,20.4730,-37.9390,34.8400
2.2472,0.0080,-0.1000,1.1460,-0.2140,19.2980,-39.0230,34.8800
2.2588,0.0200,-0.1070,1.1500,-1.6030,19.2370,-39.8320,34.8400
2.2661,0.0220,-0.1000,1.1310,0.9770,18.4580,-40.4430,34.8400
2.2784,0.0230,-0.0970,1.1450,-1.0990,17.2520,-41.1450,34.8800
2.2901,0.0280,-0.0730,1.1650,-2.9310,16.2600,-40.5190,34.9300
2.2974,0.0460,-0.0710,1.1750,-2.7940,18.3970,-41.0840,34.9300
2.3091,0.0380,-0.0470,1.1710,-4.2600,18.1830,-40.8240,34.8800
2.3160,0.0410,-0.0810,1.1770,-6.7790,19.8020,-40.1070,34.8400
2.3282,0.0260,-0.1030,1.1840,-7.3280,21.1760,-40.4120,34.8800
2.3403,0.0030,-0.1020,1.1710,-5.9540,21.6030,-41.2060,34.7900
2.3470,-0.0080,-0.1340,1.1540,-6.6110,20.6720,-41.1150,34.8400
2.3596,-0.0070,-0.1540,1.1710,-8.7630,19.9080,-40.1830,34.9800
2.3660,-0.0110,-0.1370,1.1810,-5.6790,19.4350,-41.6340,34.8800
2.3783,-0.0080,-0.1480,1.1750,-3.2670,18.4430,-43.1300,34.9300
2.3900,0.0100,-0.1630,1.1810,-3.4050,18.5650,-42.5340,34.7900
2.3971,0.0100,-0.1650,1.1660,-5.6790,19.1910,-41.3590,34.8400
2.4091,0.0030,-0.1560,1.1580,-4.4270,18.7480,-40.9620,34.9300
2.4159,0.0070,-0.1410,1.1520,-3.4500,16.9920,-39.7560,34.8800
2.4281,0.0100,-0.1190,1.1420,-1.7860,15.5270,-40.0310,34.9300
2.4404,0.0030,-0.1190,1.1360,-3.2060,14.2440,-40.9010,34.7900
2.4472,0.0180,-0.1250,1.1380,-8.3820,14.7630,-45.0990,34.8800
2.4595,0.0240,-0.1080,1.1600,-9.9690,15.1450,-46.7480,34.8400
2.4662,0.0400,-0.1300,1.1760,-7.0840,14.5650,-44.1980,34.8400
2.4784,0.0490,-0.1590,1.1820,-5.1450,14.4270,-42.6870,34.8800
2.4905,0.0350,-0.1860,1.1890,-5.3890,14.4120,-42.2140,34.9300
2.4975,0.0260,-0.1730,1.1850,-3.7860,13.9390,-39.7860,34.8800
2.5097,0.0330,-0.1670,1.1900,-1.8780,13.4200,-39.7560,34.8800
2.5162,0.0470,-0.1540,1.2120,0.7020,13.9390,-39.5880,34.9300
2.5287,0.0490,-0.1660,1.2150,0.6260,14.7020,-39.9690,34.9800
2.5358,0.0290,-0.1680,1.1990,2.2140,15.4200,-40.4430,34.8800
2.5478,0.0580,-0.1400,1.2010,2.7790,16.2140,-38.8400,34.9300
2.5602,0.0520,-0.1450,1.1910,1.8320,16.6560,-38.5190,34.7900
2.5670,0.0520,-0.0960,1.2000,1.6340,18.6410,-37.2820,34.8400
2.5791,0.0470,-0.0990,1.1940,4.5650,20.4890,-37.0380,34.8400
2.5865,0.0430,-0.1110,1.1860,3.6180,21.4050,-37.8320,34.8800
2.5983,0.0360,-0.1260,1.1700,1.7400,21.7100,-36.6260,34.9300
2.6106,0.0200,-0.1440,1.1690,1.3890,20.6560,-36.1370,34.8400
2.6177,0.0350,-0.1380,1.1690,0.7940,19.3440,-36.2900,34.8800
2.6299,0.0210,-0.1090,1.1660,1.9080,18.6110,-38.0610,34.8400
2.6369,0.0430,-0.0640,1.1690,4.3970,18.8550,-39.3130,34.8800
2.6488,0.0680,-0.0410,1.1780,3.5570,20.0460,-40.6260,34.8800
2.6557,0.0690,-0.0320,1.1830,7.1600,22.6410,-43.8470,34.9300
2.6683,0.0710,-0.0640,1.1820,10.3660,24.2750,-47.4050,34.8800
2.6809,0.0760,-0.0930,1.1910,4.6260,25.3280,-45.8630,34.8800
2.6870,0.0430,-0.1090,1.1720,1.6790,25.1150,-43.9080,34.7900
2.6994,0.0230,-0.0850,1.1110,2.1830,23.9540,-43.2670,34.7900
2.7063,0.0290,-0.1390,1.1570,-0.0920,21.2210,-41.8930,34.9300
2.7186,0.0430,-0.1460,1.1580,-2.1370,19.7400,-37.7250,34.9300
2.7305,0.0440,-0.1340,1.1650,-3.4960,18.5950,-35.5570,34.7900
2.7375,0.0360,-0.1170,1.1410,-3.7860,15.9850,-35.4660,34.8400
2.7495,0.0320,-0.0920,1.1300,-1.9390,13.4660,-37.6490,34.8800
2.7565,0.0620,-0.0780,1.1590,-2.5040,13.0230,-38.6720,34.8800
2.7687,0.0640,-0.0800,1.1600,-3.2370,14.5190,-39.1600,34.9300
2.7760,0.0540,-0.0770,1.1670,-4.2750,15.9080,-39.1910,34.8800
2.7878,0.0410,-0.0820,1.1530,-5.0690,15.5570,-39.2670,34.8800
2.7999,0.0390,-0.1010,1.1650,-4.7940,14.6560,-39.7860,34.8400
2.8065,0.0520,-0.1040,1.1740,-5.8320,15.7250,-40.0310,34.7900
2.8189,0.0600,-0.0940,1.1840,-4.3970,16.2600,-40.2600,34.8800
2.8256,0.0640,-0.1180,1.1960,-2.6260,16.8090,-41.0690,34.9300
2.8379,0.0540,-0.1240,1.2050,-2.8090,17.2520,-40.5040,34.9800
2.8501,0.0420,-0.1290,1.1990,-2.9770,18.0920,-39.9540,34.8400
2.8567,0.0400,-0.1340,1.1920,-1.6030,17.6030,-40.8400,34.8400
2.8692,0.0360,-0.1320,1.1970,-4.4730,17.0530,-39.7560,34.8800
2.8762,0.0340,-0.1180,1.2030,-5.2210,17.2370,-38.7180,34.9300
2.8882,0.0300,-0.1090,1.1890,-3.4960,17.2980,-39.2370,34.9300
2.9000,0.0390,-0.1240,1.2010,-2.1370,17.7560,-39.1910,34.8800
2.9070,0.0320,-0.1370,1.1910,-2.3820,18.4730,-39.0230,34.8400
2.9193,0.0220,-0.1300,1.1960,-3.4200,18.5040,-39.3440,34.8800
2.9264,0.0280,-0.1350,1.1890,-0.1980,17.9240,-38.9310,34.9800
2.9380,0.0320,-0.1520,1.1900,-1.0530,17.6950,-39.0230,34.8400
2.9504,0.0290,-0.1360,1.1940,-1.6340,17.4200,-37.8780,34.9800
2.9569,0.0460,-0.1260,1.1870,0.0000,17.9690,-37.3440,34.8800
2.9695,0.0580,-0.1200,1.1880,-2.2440,17.2370,-37.0990,34.9300
2.9766,0.0590,-0.1170,1.1960,-0.5650,18.0760,-37.9540,34.7900
2.9883,0.0580,-0.1220,1.1990,0.7630,18.4430,-38.5040,34.7900
3.0007,0.0590,-0.1140,1.1800,1.4350,18.2750,-38.4580,34.9800
3.0077,0.0530,-0.1100,1.1680,0.5500,18.0760,-38.1530,34.8800
3.0199,0.0560,-0.0930,1.1780,-0.4120,18.3820,-37.8320,34.8400
3.0269,0.0620,-0.0850,1.1720,0.8240,18.7480,-38.6560,34.8400
3.0389,0.0590,-0.0860,1.1710,-2.0150,19.4960,-37.9390,34.8800
3.0462,0.0520,-0.0870,1.1640,-3.0080,19.8630,-36.6870,34.9300
3.0580,0.0350,-0.0820,1.1350,-3.6950,18.9310,-37.7400,34.8800
3.0701,0.0290,-0.0950,1.1490,-4.6560,17.8470,-38.4730,34.8800
3.0770,0.0380,-0.1080,1.1670,-3.9390,17.3590,-39.5270,34.8400
3.0892,0.0380,-0.1260,1.1600,-2.6720,17.7560,-39.6790,34.9300
3.0958,0.0380,-0.1230,1.1510,-3.1600,18.0150,-38.9470,34.8800
3.1082,0.0410,-0.1230,1.1460,-4.1070,16.8850,-37.0990,35.0200
3.1204,0.0430,-0.1300,1.1480,-4.4270,16.6720,-36.9470,34.8800
3.1272,0.0450,-0.1090,1.1660,-4.7940,15.7250,-37.4810,34.8800
3.1393,0.0530,-0.0960,1.1570,-3.0380,15.8020,-37.7710,34.8400
3.1460,0.0480,-0.0910,1.1600,-4.4430,15.2370,-38.0310,34.8800
3.1582,0.0440,-0.0950,1.1650,-4.5040,15.3130,-38.2750,34.8800
3.1703,0.0440,-0.1040,1.1640,-4.0760,15.2980,-37.9540,34.9300
3.1776,0.0390,-0.1190,1.1580,-4.4890,14.8700,-37.6790,34.8800
3.1893,0.0290,-0.1170,1.1610,-3.0530,14.2900,-38.8550,34.8800
3.1965,0.0470,-0.1220,1.1600,-1.1760,13.4350,-38.9470,34.8400
3.2083,0.0610,-0.0990,1.1700,-4.4120,13.5730,-38.1530,34.9800
3.2206,0.0690,-0.0890,1.1680,-4.4890,15.1760,-37.4660,34.8800
3.2275,0.0700,-0.0890,1.1590,-5.7250,15.0380,-37.1600,34.8400
3.2395,0.0660,-0.1090,1.1710,-2.9160,16.2750,-39.7860,34.8800
3.2463,0.0620,-0.1290,1.1710,0.5040,16.9010,-40.5500,34.9800
3.2587,0.0870,-0.1330,1.1550,-1.1600,16.3970,-40.2440,34.9300
3.2657,0.0840,-0.1170,1.1680,2.0610,16.8400,-40.3820,34.8800
3.2780,0.0870,-0.0770,1.1640,2.7790,17.2520,-44.3360,34.9300
3.2900,0.0930,-0.0830,1.1700,-1.6180,17.8780,-41.5730,34.9300
3.2969,0.0850,-0.1120,1.1530,-5.6340,18.5500,-40.9010,34.9800
3.3092,0.0780,-0.1200,1.1530,-4.6870,17.4200,-41.0080,34.8400
3.3158,0.0750,-0.1130,1.1490,-3.9390,16.8700,-41.7710,34.9300
3.3283,0.0710,-0.1020,1.1610,-2.7020,16.7330,-42.8400,34.8800
3.3400,0.0790,-0.0920,1.1710,-5.0990,17.4050,-41.6490,34.9300
3.3470,0.0790,-0.0880,1.1820,-6.3970,18.6410,-40.3050,34.7900
3.3590,0.0630,-0.1100,1.1730,-8.1530,18.7180,-40.0920,34.8800
3.3664,0.0570,-0.1400,1.1690,-8.0310,18.0150,-39.5570,34.8400
3.3782,0.0620,-0.1670,1.1670,-6.9160,16.9310,-40.7020,34.8800
3.3903,0.0720,-0.1650,1.1880,-4.7630,13.5880,-40.5500,34.9800
3.3970,0.0810,-0.1580,1.1550,-8.9160,18.0000,-38.2440,34.9300
3.4095,0.0680,-0.1220,1.1790,-5.9390,17.1300,-38.4430,34.8800
3.4159,0.0500,-0.1120,1.1590,-5.1760,16.1370,-38.8850,34.9300
3.4285,0.0550,-0.1190,1.1580,-5.9850,15.1150,-39.6640,34.8800
3.4405,0.0600,-0.1300,1.1690,-5.2520,14.2440,-39.6180,34.7900
3.4473,0.0740,-0.1420,1.1820,-4.0310,14.5500,-39.9690,34.8400
3.4597,0.0940,-0.1470,1.1870,-3.8320,14.5800,-40.6410,34.8400
3.4663,0.0940,-0.1550,1.1880,-3.9540,14.8550,-39.5110,34.8800
3.4787,0.1000,-0.1430,1.1850,-4.8090,14.8090,-39.0990,34.9300
3.4905,0.0990,-0.1400,1.1960,-6.5340,16.2900,-37.8170,34.9800
3.4977,0.0950,-0.1080,1.1980,-6.2290,17.0990,-38.3050,34.7900
3.5097,0.0880,-0.1050,1.1920,-4.7330,18.0610,-39.3740,34.9300
3.5169,0.0700,-0.1140,1.1800,-3.9540,18.7480,-40.0920,34.8800
3.5286,0.0620,-0.1500,1.1730,-3.8780,18.6870,-39.8630,34.8800
3.5359,0.0600,-0.1670,1.1700,-3.1150,17.4660,-39.8780,34.9300
3.5475,0.0720,-0.1780,1.1720,-1.4350,16.5040,-39.0690,34.7900
3.5599,0.0940,-0.1740,1.1630,-1.0380,15.2210,-38.3970,34.8400
3.5668,0.0980,-0.1460,1.1620,-0.2140,14.7480,-38.7180,34.8400
3.5789,0.1070,-0.1150,1.1700,-1.4350,14.8090,-39.4200,34.7900
3.5860,0.1060,-0.0810,1.1560,-0.2900,15.4960,-40.0000,34.8400
3.5978,0.1250,-0.0800,1.1670,0.2900,16.7330,-40.9620,34.8400
3.6101,0.1320,-0.0930,1.1530,-2.2140,17.4660,-41.7710,34.9800
3.6170,0.1260,-0.1130,1.1730,-2.0760,18.1830,-42.0920,34.9300
3.6292,0.1040,-0.1070,1.1620,-2.9920,17.4200,-42.0310,34.8800
3.6361,0.1150,-0.1060,1.1770,-4.9470,16.4120,-41.6490,34.8800
3.6480,0.1280,-0.1040,1.1920,-1.6490,17.1600,-43.0990,34.8400
3.6604,0.1370,-0.1240,1.2140,-0.5950,18.0150,-43.6790,34.8800
3.6673,0.1410,-0.1360,1.2050,-1.3440,19.4350,-43.2370,34.8800
3.6795,0.1310,-0.1420,1.1960,-1.3440,20.8550,-42.5950,34.8800
3.6863,0.1130,-0.1490,1.1770,-1.2980,20.5800,-43.9080,34.8800
3.6986,0.1130,-0.1570,1.1650,-0.5500,20.7940,-43.2370,34.9300
3.7103,0.1230,-0.1720,1.1580,0.7330,19.6950,-43.9390,34.8400
3.7176,0.1290,-0.1530,1.1560,1.0990,19.7100,-43.1910,34.7900
3.7296,0.1330,-0.1100,1.1600,-1.6030,20.4120,-43.0990,34.9300
3.7365,0.1250,-0.0830,1.1600,-4.1220,21.2060,-44.6410,34.7900
3.7485,0.1250,-0.0620,1.1550,-4.4430,22.7480,-43.6030,34.8800
3.7544,0.1180,-0.0940,1.1460,-4.9770,23.7250,-44.3660,34.9300
3.7677,0.1150,-0.1120,1.1500,-5.8170,24.6110,-44.4120,34.8800
3.7799,0.1090,-0.1420,1.1460,-6.6560,24.1680,-44.0920,34.7900
3.7869,0.0960,-0.1390,1.1360,-5.7400,23.1600,-45.4350,34.7400
3.7989,0.1100,-0.1380,1.1560,-6.9010,22.9620,-45.7860,34.9800
3.8055,0.1150,-0.1340,1.1670,-6.1830,23.6790,-46.6870,34.9300
3.8180,0.1070,-0.1320,1.1740,-5.8630,22.6260,-47.5880,35.0200
3.8299,0.1120,-0.1450,1.1680,-4.6410,23.5880,-46.5040,34.8800
3.8370,0.0890,-0.1860,1.1540,-6.3510,25.2060,-46.9160,34.8400
3.8489,0.0940,-0.1830,1.1680,-6.6560,22.7020,-44.5950,34.7400
3.8557,0.0920,-0.2000,1.1630,-4.6870,21.8780,-45.3440,34.7900
3.8680,0.1200,-0.1760,1.1670,-5.4960,21.8930,-44.9470,34.9300
3.8801,0.1220,-0.1530,1.1710,-4.7020,23.0690,-45.8170,34.8400
3.8871,0.1260,-0.1530,1.1650,-4.3660,22.2440,-46.0000,34.7900
3.8990,0.1460,-0.1510,1.1730,-5.0080,23.6490,-46.3660,34.9300
3.9057,0.1490,-0.1570,1.1760,-3.6490,24.1680,-47.0840,34.7900
3.9181,0.1480,-0.1540,1.1760,-2.0610,23.3590,-48.4120,34.8800
3.9303,0.1590,-0.1650,1.1790,-0.9160,22.8700,-49.2370,34.8400
3.9373,0.1660,-0.1480,1.1810,-0.4730,22.4120,-49.9080,34.8800
3.9493,0.1730,-0.1400,1.1770,-0.9010,24.0460,-50.6560,34.8800
3.9561,0.1640,-0.1300,1.1780,-2.3050,24.5500,-50.7180,34.7400
3.9685,0.1670,-0.1260,1.1670,-2.6110,25.5880,-50.9010,34.7900
3.9803,0.1640,-0.1380,1.1630,-3.2060,26.4270,-50.6110,34.8400
3.9872,0.1700,-0.1400,1.1530,-5.3890,26.7630,-50.3360,34.8800
3.9992,0.1720,-0.1480,1.1810,-4.3510,26.9010,-52.0150,34.8800
