Time,AX,AY,AZ,GX,GY,GZ,T
0.0000,0.0920,-0.1440,1.1940,1.8630,26.7020,-76.1370,34.8400
0.0004,0.0640,-0.1720,1.1830,0.8400,26.7180,-76.0460,34.7900
0.0007,0.0540,-0.1190,1.1960,-2.4120,27.3590,-73.1300,34.8800
0.0010,0.0520,-0.1130,1.1690,-3.4200,29.6340,-71.4200,34.9300
0.0013,0.0620,-0.0870,1.2060,-7.6490,30.5040,-69.4960,34.7900
0.0017,0.0440,-0.1080,1.1940,-5.4200,30.6870,-69.0080,34.7900
0.0020,0.0340,-0.1290,1.1730,-4.4580,30.2750,-69.3130,34.8400
0.0023,0.0040,-0.1470,1.1580,-3.7400,28.1370,-69.9390,34.8800
0.0026,-0.0130,-0.1490,1.1350,-2.7330,25.2210,-70.7180,34.9300
0.0029,-0.0130,-0.1420,1.1680,0.5650,22.4270,-71.8470,34.8400
0.0033,0.0030,-0.1480,1.1700,2.5500,20.5650,-70.5650,34.7900
0.0037,0.0330,-0.1230,1.2010,0.4430,20.6260,-70.0150,34.8400
0.0041,0.0440,-0.0940,1.2050,0.2900,22.1530,-68.4120,34.9300
0.0047,0.0380,-0.0860,1.1820,-1.6640,23.0990,-69.1760,34.7900
0.0051,0.0290,-0.1320,1.1660,0.2290,22.1220,-70.1980,34.9300
0.0056,0.0200,-0.1520,1.1580,2.2600,20.8400,-69.7560,34.8400
0.0061,0.0230,-0.1710,1.1600,0.2440,19.6180,-66.7630,34.7900
0.0065,0.0220,-0.1550,1.1720,-0.9620,19.8630,-63.4660,34.8400
0.0068,0.0090,-0.1410,1.1350,1.3590,18.3210,-62.2900,34.8400
0.0072,0.0080,-0.1140,1.1320,1.0990,15.6640,-61.6640,34.8800
0.0075,-0.0010,-0.1180,1.1430,2.0610,11.7860,-61.2980,34.8400
0.0078,0.0160,-0.1230,1.1450,0.4270,12.0610,-62.2750,34.7900
0.0081,0.0250,-0.1020,1.1440,-0.5950,10.9920,-62.1680,34.8800
0.0084,0.0210,-0.0940,1.1360,0.4730,10.5950,-60.8400,34.9300
0.0088,0.0290,-0.0620,1.1370,1.0380,11.3280,-64.3050,34.7900
0.0091,0.0590,-0.0510,1.1500,-2.8550,10.4120,-64.5500,34.7900
0.0095,0.0700,-0.0260,1.1410,-2.2140,12.0760,-68.6560,34.8400
0.0099,0.0930,-0.0220,1.1290,-0.7180,16.6110,-71.5270,34.8800
0.0102,0.0820,-0.0660,1.1400,-2.5650,18.2750,-70.5950,34.7900
0.0106,0.0580,-0.1440,1.1300,-6.6260,20.3660,-69.3740,34.7400
0.0109,0.0430,-0.1270,1.1560,-11.7860,21.6180,-64.2440,34.7900
0.0113,0.0220,-0.1310,1.1590,-12.1980,22.3050,-60.2750,34.8400
0.0116,0.0180,-0.1550,1.1720,-10.3660,23.6180,-59.1150,34.7900
0.0120,0.0080,-0.1410,1.1670,-10.5800,23.8470,-56.9310,34.7900
0.0124,0.0130,-0.1570,1.1620,-6.1830,21.5570,-57.6340,34.7400
0.0128,0.0010,-0.1740,1.1740,-2.9310,20.7180,-58.2750,34.8400
0.0135,0.0130,-0.1790,1.1850,1.4810,19.0080,-62.7020,34.8800
0.0140,0.0350,-0.1480,1.1720,3.0690,19.2670,-63.0530,34.9300
0.0146,0.0340,-0.1400,1.1880,1.3890,18.0920,-62.4730,34.8800
0.0150,0.0390,-0.1250,1.1660,3.9690,20.1070,-62.1530,34.7900
0.0154,0.0310,-0.1010,1.1600,0.6410,18.8700,-59.9850,34.8400
0.0158,0.0190,-0.0830,1.1600,-0.8550,19.4960,-60.5800,34.8800
0.0161,0.0130,-0.0730,1.1490,0.0000,18.1530,-61.3590,34.8800
0.0164,0.0270,-0.0720,1.1780,-2.4890,17.6790,-61.1300,34.8400
0.0168,0.0210,-0.0790,1.1620,-0.9010,19.6950,-61.5880,34.8800
0.0171,0.0150,-0.1240,1.1730,1.3590,18.9010,-62.0610,34.7900
0.0174,0.0240,-0.1610,1.1840,2.7630,18.6110,-62.6410,34.8400
0.0178,0.0290,-0.1750,1.1850,1.7860,18.0610,-60.4890,34.8800
0.0181,0.0310,-0.1660,1.1880,-0.1830,18.6410,-57.1300,34.7900
0.0185,0.0210,-0.1490,1.1770,0.8090,18.3660,-56.3660,34.8400
0.0190,0.0260,-0.1540,1.1860,0.0610,17.7710,-56.0000,34.7900
0.0193,0.0340,-0.1450,1.1770,-0.3360,17.6340,-55.3130,34.8800
0.0197,0.0420,-0.1510,1.1960,-1.5270,17.4500,-52.6870,34.8400
0.0200,0.0580,-0.1460,1.1820,-3.3130,18.6410,-52.0000,34.7900
0.0202,0.0590,-0.1310,1.1710,-3.9390,18.8400,-51.2060,34.8400
0.0205,0.0640,-0.1130,1.1830,-3.8780,19.8630,-53.2060,34.8400
0.0208,0.0710,-0.0970,1.1860,0.6410,21.2980,-56.0000,34.8800
0.0211,0.0820,-0.0910,1.1890,0.7940,23.4350,-55.5730,34.7400
0.0215,0.0830,-0.0960,1.1900,0.0000,26.4120,-53.1300,34.7400
0.0219,0.0700,-0.1060,1.1730,-1.7100,28.5950,-49.9240,34.7900
0.0222,0.0410,-0.0840,1.1630,-1.2820,28.9470,-49.2210,34.8400
0.0224,0.0260,-0.0970,1.1500,-2.1530,27.8320,-49.3440,34.7900
0.0227,0.0260,-0.1160,1.1590,-3.9850,27.5730,-48.9470,34.8800
0.0230,0.0320,-0.1170,1.1570,-8.2900,27.8780,-48.0920,34.8400
0.0233,0.0250,-0.0980,1.1530,-7.1300,29.6790,-47.7560,34.7900
0.0236,0.0000,-0.1040,1.1310,-8.9010,29.2670,-47.3590,34.7900
0.0238,-0.0150,-0.1340,1.1430,-8.2440,27.8170,-47.6640,34.7400
0.0241,-0.0190,-0.1390,1.1280,-4.9620,25.8470,-48.4270,34.7900
0.0244,-0.0130,-0.1520,1.1430,-6.0610,24.3660,-46.7330,34.7400
0.0247,-0.0070,-0.1580,1.1460,-5.6490,23.3440,-45.8470,34.8800
0.0250,0.0220,-0.1730,1.1760,-3.3740,23.7710,-45.1910,34.7900
0.0252,0.0090,-0.1600,1.1680,-5.5420,24.1530,-41.3440,34.8400
0.0255,-0.0070,-0.1320,1.1450,-5.8780,22.5650,-40.8240,34.8400
0.0258,-0.0020,-0.1340,1.1410,-3.4810,20.0610,-42.4890,34.7900
0.0261,0.0350,-0.1400,1.1600,0.0310,19.4810,-43.9080,34.8400
0.0264,0.0570,-0.1490,1.1850,-3.7400,20.2290,-41.0230,34.7900
0.0266,0.0470,-0.1210,1.1720,-7.7400,21.4050,-37.8780,34.7900
0.0269,0.0510,-0.1170,1.1610,-6.9310,20.4270,-39.7860,34.8400
0.0272,0.0650,-0.1030,1.1810,-0.5800,20.0610,-45.3590,34.7900
0.0275,0.0840,-0.0980,1.1880,1.2820,19.8930,-45.9240,34.8800
0.0278,0.0770,-0.1160,1.1870,-1.8170,21.0080,-43.5730,34.7400
0.0280,0.0610,-0.1230,1.1760,-3.4810,19.7560,-41.5270,34.8800
0.0283,0.0840,-0.1400,1.1920,-1.8630,18.4120,-43.4050,34.7900
0.0285,0.1350,-0.1260,1.2130,-2.3360,19.9080,-43.1300,34.8400
0.0288,0.1380,-0.1180,1.2160,-0.1980,23.0840,-43.4810,34.7900
0.0290,0.1180,-0.1100,1.1950,-2.1980,24.5040,-42.6720,34.8400
0.0293,0.0980,-0.0900,1.1870,-4.2750,24.4890,-42.8400,34.8400
0.0296,0.0990,-0.1080,1.1860,-2.7940,23.5730,-45.9240,34.7900
0.0298,0.1090,-0.1090,1.2020,0.3360,23.3890,-48.1680,34.8400
0.0300,0.1060,-0.1090,1.2080,0.3660,25.4810,-46.0610,34.8400
0.0303,0.0930,-0.1080,1.2100,-4.9010,26.1070,-43.2670,34.8800
0.0309,0.0650,-0.1040,1.1930,-4.8550,26.6260,-43.0080,34.8400
0.0311,0.0420,-0.1210,1.1590,-3.2670,24.8850,-44.7020,34.8400
0.0314,0.0400,-0.1140,1.1670,-0.2290,22.6410,-46.6410,34.7900
0.0316,0.0490,-0.1400,1.1760,0.7480,21.5570,-45.4810,34.8400
0.0319,0.0680,-0.1400,1.1800,-2.8400,20.5950,-42.8090,34.6900
0.0321,0.0720,-0.1350,1.1820,-1.3740,20.3050,-43.6950,34.7900
0.0324,0.0690,-0.1210,1.1790,1.7250,19.8020,-44.3050,34.8400
0.0326,0.0860,-0.1300,1.1880,1.0380,20.3660,-44.5190,34.7900
0.0329,0.0920,-0.1290,1.1960,-3.6180,21.9390,-42.1530,34.8800
0.0331,0.0770,-0.1260,1.1860,-2.0150,23.0230,-41.6340,34.7400
0.0334,0.0640,-0.1160,1.1810,-1.8470,22.8240,-42.1980,34.8800
0.0336,0.0510,-0.1240,1.1610,-1.4960,21.8470,-42.8240,34.7900
0.0338,0.0510,-0.1340,1.1590,-0.8240,20.1070,-42.9620,34.7400
0.0341,0.0590,-0.1410,1.1530,-1.5570,19.3440,-43.8470,34.7900
0.0343,0.0690,-0.1210,1.1720,-1.9080,18.7940,-43.3280,34.8400
0.0345,0.0780,-0.1230,1.1690,-3.1760,18.3510,-42.7330,34.7900
0.0347,0.0680,-0.1050,1.1480,-4.0460,17.1910,-43.1450,34.8800
0.0350,0.0770,-0.1360,1.1680,1.5270,15.8320,-47.6950,34.8400
0.0352,0.0880,-0.1230,1.1720,4.1680,15.8630,-47.0380,34.8400
0.0354,0.1010,-0.1490,1.1750,2.9620,17.4050,-45.6490,34.7900
0.0356,0.1060,-0.1250,1.1810,-1.1910,18.3360,-43.3280,34.8400
0.0358,0.1030,-0.1090,1.1720,-0.4120,19.4660,-42.7180,34.7900
0.0361,0.1020,-0.1020,1.1770,1.0380,19.9080,-43.7250,34.8800
0.0363,0.1050,-0.1070,1.1790,-0.7790,20.8090,-43.4500,34.7400
0.0365,0.1070,-0.1130,1.1730,-2.2440,21.9540,-43.8470,34.7900
0.0367,0.1040,-0.0880,1.1660,-1.4660,23.3890,-45.0080,34.7900
0.0370,0.0910,-0.1110,1.1630,-0.5340,24.0760,-45.6340,34.7400
0.0372,0.0990,-0.1270,1.1790,-3.5730,24.7330,-44.1680,34.8800
0.0374,0.0900,-0.1170,1.1870,-4.9620,25.9850,-42.2290,34.8800
0.0376,0.0730,-0.1100,1.1670,-6.0310,26.2750,-40.7480,34.8400
0.0378,0.0560,-0.0980,1.1490,-3.9080,25.4960,-42.0610,34.7900
0.0381,0.0600,-0.1030,1.1580,-3.0530,24.6870,-42.4120,34.7900
0.0383,0.0660,-0.1080,1.1640,-2.0460,24.7630,-42.7020,34.7400
0.0385,0.0720,-0.1340,1.1730,-0.5040,24.9160,-43.7100,34.7900
0.0388,0.0790,-0.1370,1.1700,-0.4120,25.7860,-43.9690,34.8400
0.0390,0.0670,-0.1280,1.1580,-2.6560,26.0920,-42.7630,34.7400
0.0393,0.0630,-0.1270,1.1720,-4.0000,25.9540,-41.9080,34.7900
0.0395,0.0620,-0.1150,1.1620,-2.6560,25.8630,-41.1910,34.8400
0.0397,0.0560,-0.1080,1.1530,-3.0230,24.7330,-41.5730,34.8400
0.0399,0.0630,-0.1140,1.1560,-2.6260,24.2900,-41.4810,34.7900
0.0401,0.0680,-0.1210,1.1640,-3.5730,24.3660,-41.0690,34.8400
0.0403,0.0520,-0.1210,1.1680,-3.0990,24.3360,-41.3280,34.8400
0.0405,0.0410,-0.1150,1.1570,-2.5650,22.7790,-41.7100,34.8800
0.0407,0.0400,-0.1330,1.1710,-2.6560,22.0760,-42.1220,34.7400
0.0409,0.0570,-0.1410,1.1740,-3.5270,21.2520,-41.8170,34.7400
0.0411,0.0650,-0.1460,1.1850,-3.4050,21.2210,-41.3440,34.7900
0.0413,0.0750,-0.1180,1.1840,-4.2440,21.7400,-40.4580,34.8400
0.0415,0.0810,-0.1100,1.1710,-2.2290,22.5040,-40.8400,34.6900
0.0417,0.0720,-0.1010,1.1720,-1.6490,22.0150,-39.9850,34.8800
0.0419,0.0600,-0.1020,1.1530,-0.8700,21.1910,-40.4120,34.8400
0.0421,0.0670,-0.1150,1.1620,0.4730,20.8400,-41.4500,34.7900
0.0423,0.0710,-0.1060,1.1620,-1.5570,19.9690,-40.8400,34.8800
0.0426,0.0720,-0.0990,1.1580,-1.3440,19.8170,-41.2820,34.8400
0.0428,0.0730,-0.0920,1.1620,-4.4580,19.6490,-41.3440,34.7900
0.0430,0.0730,-0.0930,1.1690,-2.9160,20.5650,-42.0310,34.7400
0.0432,0.0810,-0.1200,1.1820,-3.1300,21.3130,-41.7250,34.8400
0.0434,0.0840,-0.1420,1.1950,-4.9620,23.0380,-41.3280,34.8800
0.0436,0.0720,-0.1340,1.1840,-5.5880,23.0530,-40.5800,34.7400
0.0438,0.0460,-0.1250,1.1670,-3.9690,22.0610,-41.6640,34.7900
0.0440,0.0620,-0.1220,1.1750,0.1680,20.5950,-43.1600,34.7900
0.0442,0.0620,-0.1340,1.1850,-0.0310,21.1300,-41.4960,34.8400
0.0444,0.0770,-0.1230,1.1650,-2.4580,20.8090,-39.4050,34.7900
0.0446,0.0690,-0.1280,1.1780,-1.2060,20.6260,-39.3130,34.7900
0.0448,0.0730,-0.1170,1.1610,-1.0990,20.0310,-40.5650,34.8400
0.0451,0.0850,-0.1060,1.1550,-0.0000,20.6870,-45.8780,34.8400
0.0453,0.0640,-0.0910,1.1580,-3.7710,21.0990,-45.2520,34.8400
0.0455,0.0680,-0.0960,1.1640,-4.1220,21.7860,-45.4200,34.7900
0.0457,0.0570,-0.1120,1.1710,-4.4580,22.3970,-45.3740,34.8400
0.0458,0.0350,-0.1090,1.1580,-2.5500,21.7100,-45.8780,34.8800
0.0460,0.0250,-0.1160,1.1590,-2.3820,20.3820,-46.5500,34.8800
0.0558,0.0360,-0.1210,1.1670,-1.4350,19.0690,-47.5420,34.8400
0.0676,0.0450,-0.1370,1.1720,-0.6560,19.2210,-48.3050,34.7900
0.0746,0.0540,-0.1530,1.1760,-3.2520,20.0310,-47.0530,34.7900
0.0866,0.0460,-0.1310,1.1810,-3.3130,21.6030,-46.4270,34.8400
0.0936,0.0380,-0.1110,1.1790,-5.2210,22.1980,-45.0990,34.7900
0.1056,0.0260,-0.1110,1.1730,-5.2820,21.1600,-44.8240,34.7900
0.1179,0.0230,-0.1430,1.1750,-5.2980,20.4120,-45.2980,34.8400
0.1245,0.0240,-0.1430,1.1760,-4.2440,19.6640,-44.1370,34.7900
0.1368,0.0390,-0.1440,1.1810,-2.8850,19.3590,-44.9620,34.7900
0.1436,0.0380,-0.1350,1.1860,-1.5730,18.5500,-46.2750,34.7400
0.1558,0.0520,-0.1300,1.1840,-0.5650,19.1600,-46.7330,34.7900
0.1682,0.0630,-0.1340,1.2080,-0.8400,20.1220,-46.1220,34.8400
0.1749,0.0530,-0.1310,1.1950,-0.6110,21.3590,-46.7790,34.9300
0.1873,0.0470,-0.1280,1.1990,-1.1600,22.0460,-45.1450,34.7900
0.1940,0.0360,-0.1400,1.1980,-1.7400,22.0920,-44.3050,34.8400
0.2061,0.0250,-0.1390,1.2010,-1.7250,21.9390,-43.2820,34.7400
0.2182,0.0130,-0.1440,1.1910,-1.7860,21.3280,-42.6110,34.8800
0.2252,0.0130,-0.1580,1.1930,-1.0690,20.7330,-42.9160,34.8400
0.2373,0.0090,-0.1560,1.1750,-0.7020,19.9080,-42.7480,34.7400
0.2445,0.0200,-0.1500,1.1760,0.9470,19.4050,-42.6720,34.8800
0.2567,0.0310,-0.1410,1.1750,-0.1830,18.9770,-42.1680,34.8400
0.2633,0.0410,-0.1100,1.1790,-0.6720,19.1450,-41.0990,34.8400
0.2755,0.0520,-0.0930,1.1830,-0.7020,19.9540,-41.6790,34.8800
0.2875,0.0530,-0.1010,1.1800,-0.5650,20.7940,-42.7180,34.9300
0.2948,0.0430,-0.1240,1.1740,-1.3280,21.1150,-41.7860,34.9300
0.3067,0.0320,-0.1220,1.1680,-2.7480,21.4350,-40.7630,34.8800
0.3134,0.0140,-0.1090,1.1560,-0.8400,20.3660,-41.8630,34.8400
0.3255,0.0030,-0.1180,1.1440,-0.4430,19.4660,-41.8630,34.7900
0.3378,0.0130,-0.1290,1.1670,-0.4730,18.0000,-41.5880,34.7900
0.3446,0.0220,-0.1460,1.1550,0.4730,16.8700,-41.4350,34.8400
0.3568,0.0360,-0.1370,1.1600,-1.0840,17.1600,-40.2600,34.8800
0.3640,0.0490,-0.1100,1.1710,-1.9690,17.0230,-39.7560,34.7900
0.3759,0.0580,-0.1170,1.1630,-2.0310,16.9920,-40.0150,34.9300
0.3881,0.0680,-0.1010,1.1700,-1.4350,17.4350,-40.9920,34.7900
0.3950,0.0720,-0.0960,1.1710,-1.5270,18.5340,-40.5650,34.8400
0.4068,0.0650,-0.1080,1.1750,-3.2520,19.3440,-40.1530,34.7900
0.4140,0.0610,-0.1010,1.1650,-1.2980,19.8630,-41.1150,34.8800
0.4261,0.0680,-0.1130,1.1630,-2.4120,19.3740,-41.4050,34.8400
0.4383,0.0670,-0.1150,1.1600,-2.4430,19.6340,-41.0230,34.8400
0.4453,0.0750,-0.1200,1.1650,-2.0150,20.4270,-41.7100,34.7900
0.4572,0.0800,-0.1190,1.1780,-1.6180,21.5270,-42.4730,34.8400
0.4641,0.0730,-0.1150,1.1920,-3.8470,22.9920,-41.4960,34.7900
0.4762,0.0600,-0.1090,1.1790,-3.4200,23.7710,-41.4200,34.8800
0.4883,0.0330,-0.1080,1.1750,-3.7710,23.7100,-42.1370,34.7400
0.4955,0.0310,-0.1240,1.1800,-4.1980,22.9160,-41.8320,34.7400
0.5073,0.0280,-0.1300,1.1860,-2.5800,22.9770,-41.2820,34.7900
0.5153,0.0180,-0.1500,1.1780,-2.4120,23.1910,-41.3590,34.8400
0.5261,0.0230,-0.1480,1.1740,-2.3510,22.6560,-41.1150,34.8800
0.5332,0.0210,-0.1560,1.1580,-1.5730,21.6490,-40.9920,34.8800
0.5453,0.0360,-0.1430,1.1850,-0.9010,21.5880,-41.4810,34.8400
0.5575,0.0590,-0.1240,1.1830,-0.4580,22.4580,-40.5040,34.7900
0.5642,0.0580,-0.1300,1.1740,-0.7480,23.4200,-40.2290,34.8800
0.5765,0.0500,-0.1100,1.1690,-2.2290,24.3360,-39.2980,34.8400
0.5831,0.0320,-0.1230,1.1650,-1.6950,24.0610,-39.2980,34.8800
0.5957,0.0210,-0.1100,1.1420,-1.0990,23.4500,-40.5950,34.7900
0.6077,0.0300,-0.1140,1.1420,-1.5730,22.0610,-41.1300,34.8400
0.6145,0.0410,-0.1120,1.1230,-3.2980,21.1910,-41.5880,34.8800
0.6268,0.0320,-0.1100,1.1570,-4.5950,20.4580,-40.8090,34.9300
0.6334,0.0410,-0.1340,1.1620,-5.2210,21.4500,-40.9920,34.8400
0.6460,0.0480,-0.1320,1.1680,-6.2290,21.7100,-40.0150,34.7900
0.6578,0.0600,-0.1460,1.1640,-3.2210,22.4730,-41.4200,34.9300
0.6646,0.0490,-0.1250,1.1760,-2.8240,23.0530,-40.3360,34.8400
0.6766,0.0630,-0.1090,1.1790,-3.6640,24.3360,-39.7710,34.8800
0.6837,0.0350,-0.1290,1.1740,-3.0380,25.8020,-39.6340,34.8400
0.6957,0.0150,-0.1280,1.1800,-0.5650,25.7400,-40.5190,34.8800
0.7079,0.0140,-0.1290,1.1680,-4.1220,26.4430,-38.7180,34.7900
0.7147,0.0140,-0.1140,1.1560,-4.4430,25.8320,-38.1220,34.9300
0.7269,0.0120,-0.1070,1.1560,-2.6870,25.5270,-38.5340,34.8800
0.7339,0.0120,-0.1030,1.1740,-1.6490,23.9540,-39.1600,34.7900
0.7462,0.0270,-0.1160,1.1900,-0.6410,23.8930,-40.1830,34.8400
0.7582,0.0280,-0.1200,1.1820,1.2520,25.0380,-40.2140,34.6900
0.7650,0.0220,-0.1190,1.1690,-0.9310,26.0920,-38.2750,34.7900
0.7773,-0.0020,-0.1200,1.1610,-3.4200,26.0610,-36.2140,34.7400
0.7843,-0.0110,-0.1200,1.1390,-3.4050,24.5040,-36.0920,34.8800
0.7962,-0.0170,-0.1560,1.1430,-2.2900,21.8780,-36.5190,34.7900
0.8082,0.0040,-0.1670,1.1380,-4.0610,21.3280,-35.0080,34.8400
0.8149,-0.0010,-0.1770,1.1350,-4.3050,20.5950,-34.9010,34.7900
0.8270,-0.0040,-0.1740,1.1240,-1.8780,18.4730,-34.3510,34.9300
0.8339,-0.0070,-0.1680,1.1150,-3.6790,16.5650,-34.8700,34.7900
0.8458,0.0050,-0.1600,1.1230,-1.0380,15.5570,-34.5800,34.7900
0.8580,0.0340,-0.1700,1.1410,-1.3740,14.9310,-35.6790,34.9300
0.8649,0.0590,-0.1280,1.1620,-4.1980,15.3440,-34.4580,34.9300
0.8773,0.0670,-0.0900,1.1670,-3.6790,17.0990,-34.6410,34.7900
0.8841,0.0710,-0.0770,1.1740,-5.2820,18.7630,-35.2520,34.8400
0.8962,0.0550,-0.0810,1.1580,-4.9310,18.0000,-35.9080,34.7900
0.9081,0.0330,-0.0780,1.1630,-1.6180,18.8090,-37.0990,34.7900
0.9150,0.0300,-0.1020,1.1640,-4.1830,18.8850,-36.7480,34.7400
0.9274,0.0250,-0.1270,1.1720,-6.0610,18.2290,-35.1760,34.8400
0.9342,0.0270,-0.1270,1.1680,-9.4200,17.6790,-33.9690,34.7900
0.9463,0.0210,-0.1120,1.1650,-8.4120,17.5270,-34.4270,34.7400
0.9523,0.0110,-0.1520,1.1650,-7.6490,17.1760,-35.0080,34.8800
0.9652,-0.0020,-0.1580,1.1670,-8.7480,16.5800,-34.2440,34.8800
0.9773,0.0010,-0.1680,1.1650,-8.5340,15.7710,-32.6870,34.7400
0.9844,0.0000,-0.1560,1.1780,-11.2210,11.9080,-31.1450,34.8400
0.9964,0.0050,-0.1490,1.1830,-3.2210,12.2290,-33.8630,34.7900
1.0017,0.0450,-0.1340,1.1940,-4.5800,11.4960,-34.6560,34.8400
1.0155,0.0770,-0.1140,1.1930,-0.9770,13.0380,-36.1830,34.8800
1.0275,0.0940,-0.1130,1.2150,-2.3360,13.0380,-35.3130,34.7900
1.0344,0.0790,-0.0900,1.2150,-2.9920,14.1680,-35.8930,34.8400
1.0465,0.0910,-0.0970,1.2300,-0.5950,13.4960,-38.5800,34.8800
1.0536,0.0860,-0.1060,1.2340,-1.8630,16.5650,-38.0610,34.8800
1.0656,0.0800,-0.1230,1.2090,-2.4120,17.8630,-37.6950,34.8400
1.0775,0.0910,-0.1350,1.2150,-1.5880,19.0230,-36.5650,34.8800
1.0844,0.0900,-0.1550,1.2210,-2.1980,19.5110,-37.1150,34.8800
1.0963,0.0870,-0.1350,1.2340,-2.2140,21.3130,-37.3280,34.9300
1.1033,0.0820,-0.1430,1.2140,-1.2370,22.0760,-37.6180,34.7900
1.1153,0.0850,-0.1340,1.2250,-2.0150,22.3660,-38.8090,34.7900
1.1276,0.0770,-0.1260,1.2190,0.5650,24.3210,-38.4120,34.8400
1.1345,0.0520,-0.1480,1.2040,-0.1530,23.2520,-39.2210,34.8800
1.1466,0.0480,-0.1240,1.1970,-0.0310,22.8090,-38.7940,34.7900
1.1536,0.0240,-0.1350,1.1740,0.8240,22.4730,-38.9310,34.8400
1.1660,0.0220,-0.1340,1.1810,3.0530,21.1600,-40.0150,34.7900
1.1783,0.0290,-0.1290,1.1860,4.2290,21.4660,-38.7020,34.8400
1.1849,0.0270,-0.1430,1.1830,1.4660,21.2210,-37.1600,34.7400
1.1971,0.0150,-0.1380,1.1700,2.5190,20.9010,-37.0380,34.7900
1.2045,0.0140,-0.1400,1.1650,3.1300,19.6490,-36.2900,34.8400
1.2165,0.0090,-0.0900,1.1630,2.3510,19.4660,-37.6180,34.8400
1.2237,0.0300,-0.1030,1.1650,3.2520,19.0840,-37.8780,34.7900
1.2359,0.0270,-0.1170,1.1760,2.1830,19.2980,-38.8550,34.8400
1.2480,0.0290,-0.1240,1.1750,0.3970,19.8630,-37.3280,34.7400
1.2549,0.0210,-0.1170,1.1680,0.8550,19.5270,-36.3660,34.8800
1.2670,0.0360,-0.1360,1.1770,1.0840,18.9920,-36.7180,34.9300
1.2740,0.0430,-0.1140,1.1900,0.4120,19.6030,-36.7790,34.8800
1.2863,0.0570,-0.1340,1.1960,-0.1070,20.6110,-37.0230,34.8800
1.2917,0.0620,-0.1190,1.2090,-1.2820,22.4890,-35.9540,34.8400
1.3053,0.0480,-0.1110,1.1870,-0.8090,23.5570,-36.7790,34.8800
1.3175,0.0380,-0.1090,1.1800,0.2600,23.5420,-37.2210,34.7900
1.3242,0.0270,-0.1100,1.1680,1.0380,22.8090,-38.3510,34.8400
1.3365,0.0280,-0.1330,1.1800,1.4200,21.6490,-38.0760,34.7900
1.3438,0.0270,-0.1320,1.1860,0.7790,23.2370,-36.9770,34.7900
1.3558,0.0300,-0.1400,1.1820,-0.0920,23.4500,-36.5500,34.8400
1.3681,0.0180,-0.1220,1.1890,-0.0310,24.6870,-35.4050,34.7900
1.3749,0.0060,-0.1300,1.1630,-1.0840,24.7480,-34.8090,34.8400
1.3871,-0.0040,-0.1350,1.1770,0.2900,24.3510,-36.3970,34.8800
1.3940,-0.0240,-0.1330,1.1600,3.4050,23.4810,-37.2670,34.8800
1.4060,-0.0240,-0.1460,1.1670,2.6260,21.4050,-37.5420,34.8400
1.4180,-0.0040,-0.1630,1.1720,2.6110,21.1150,-36.1830,34.8400
1.4251,-0.0080,-0.1470,1.1720,0.3820,21.6790,-34.6260,34.8800
1.4371,-0.0120,-0.1450,1.1530,-0.7630,21.0690,-33.0690,34.8400
1.4440,-0.0090,-0.1180,1.1510,0.6560,20.6870,-33.4350,34.8800
1.4560,-0.0050,-0.1080,1.1450,0.3660,20.2440,-32.2440,34.7900
1.4682,0.0090,-0.0860,1.1390,1.8320,17.5270,-33.0080,34.8400
1.4749,0.0120,-0.1180,1.1470,4.4890,15.1910,-36.9160,34.7900
1.4874,0.0660,-0.0950,1.1940,5.8470,16.7020,-37.0990,34.8800
1.4945,0.0810,-0.1090,1.1910,2.6720,20.5040,-34.1070,34.8400
1.5066,0.0780,-0.1110,1.1950,0.6870,24.0460,-32.2750,34.8800
1.5137,0.0430,-0.1030,1.1690,0.0460,25.2210,-32.4580,34.7900
1.5257,0.0090,-0.0770,1.1400,2.0150,23.2060,-34.4430,34.7400
1.5380,0.0090,-0.1000,1.1500,2.7630,21.0990,-35.0080,34.8800
1.5449,0.0310,-0.1140,1.1740,-0.6870,21.2520,-33.7860,34.7900
1.5571,0.0480,-0.1140,1.1680,-1.2820,22.3050,-32.8400,34.8400
1.5639,0.0430,-0.1050,1.1590,-1.0690,23.2520,-32.4730,34.7900
1.5762,0.0240,-0.1190,1.1600,-1.9850,22.7790,-33.2820,34.8400
1.5884,0.0210,-0.1080,1.1640,1.8170,21.9080,-34.0150,34.8400
1.5953,0.0250,-0.1080,1.1660,2.6870,20.7790,-34.4580,34.8800
1.6072,0.0420,-0.1160,1.1730,3.6640,20.8850,-34.1220,34.8400
1.6143,0.0560,-0.1110,1.1890,2.8850,21.5880,-33.5570,34.7400
1.6266,0.0510,-0.0940,1.1860,2.7940,22.2600,-32.6720,34.7900
1.6337,0.0440,-0.0940,1.1660,5.6640,21.9690,-34.3050,34.8400
1.6458,0.0550,-0.0970,1.1670,4.2290,20.6560,-34.5500,34.8400
1.6579,0.0590,-0.0790,1.1790,4.0920,19.9390,-36.4890,34.7900
1.6646,0.0850,-0.0770,1.1930,5.4500,20.5650,-37.6180,34.8400
1.6770,0.0850,-0.0880,1.1850,2.9620,21.8020,-37.6180,34.7900
1.6839,0.0660,-0.0960,1.1730,0.5040,24.1830,-37.0080,34.8800
1.6961,0.0950,-0.0930,1.1840,1.2820,23.1760,-38.3970,34.9300
1.7031,0.0830,-0.0930,1.1650,-1.0230,25.1910,-36.2750,34.8800
1.7149,0.0740,-0.0930,1.1700,0.0460,25.6950,-38.4120,34.7900
1.7274,0.0640,-0.0680,1.1680,1.0990,25.5880,-37.6950,34.8400
1.7342,0.0470,-0.0770,1.1380,-1.1150,25.8320,-37.5570,34.7900
1.7466,0.0290,-0.0640,1.1510,-3.8020,25.0690,-37.0530,34.8400
1.7534,0.0200,-0.0640,1.1480,-2.1680,23.6490,-39.0230,34.7900
1.7655,-0.0030,-0.0770,1.1630,-3.1450,22.6560,-39.9850,34.8800
1.7777,-0.0080,-0.0740,1.1460,-2.0920,22.2140,-39.7860,34.8400
1.7843,-0.0060,-0.0860,1.1560,-4.5040,21.2980,-39.1600,34.9300
1.7964,0.0040,-0.0840,1.1640,-3.7710,21.2820,-37.9850,34.8800
1.8033,-0.0050,-0.1020,1.1540,-3.5730,21.3890,-37.5730,34.8400
1.8153,-0.0050,-0.0950,1.1480,-1.7400,19.8020,-38.7480,34.7900
1.8274,0.0070,-0.1260,1.1640,-3.1450,18.8550,-38.2440,34.8800
1.8344,0.0140,-0.1290,1.1720,-2.4730,18.5340,-37.2980,34.8400
1.8464,0.0210,-0.1060,1.1750,-3.7400,18.6720,-37.9540,34.8400
1.8536,0.0200,-0.0760,1.1700,-3.5880,19.3590,-37.5110,34.7900
1.8655,-0.0010,-0.0870,1.1720,-3.2520,18.8550,-37.8470,34.8400
1.8779,0.0030,-0.0800,1.1680,-2.1980,18.9770,-38.0150,34.7900
1.8846,0.0060,-0.0900,1.1750,-2.9770,19.0530,-37.1910,34.8800
1.8967,0.0050,-0.1020,1.1740,-5.0690,19.9540,-36.8400,34.8400
1.9036,-0.0020,-0.0930,1.1820,-6.6260,19.9390,-35.6950,34.7900
1.9155,-0.0080,-0.0900,1.1610,-4.6410,20.1830,-36.5340,34.7900
1.9279,-0.0090,-0.0930,1.1710,-5.0380,19.5110,-36.3660,34.9300
1.9344,-0.0110,-0.1050,1.1720,-4.4430,19.2980,-36.3970,34.7900
1.9464,-0.0110,-0.1190,1.1670,-3.6030,18.6870,-38.4580,34.8800
1.9536,0.0000,-0.1080,1.1700,-2.3510,18.7630,-37.6030,34.8400
1.9655,0.0100,-0.1240,1.1730,-3.5880,19.7250,-36.4730,34.8800
1.9776,0.0080,-0.1010,1.1770,-7.3280,21.0840,-34.1530,34.8800
1.9847,-0.0070,-0.0660,1.1660,-8.1680,21.8320,-33.2520,34.8400
1.9965,-0.0170,-0.0660,1.1730,-5.4050,21.2210,-35.1300,34.7900
2.0037,-0.0060,-0.1010,1.1750,-3.3740,21.1150,-36.3210,34.8400
2.0156,-0.0000,-0.1310,1.1810,-2.4890,20.5040,-36.7630,34.8400
2.0275,0.0130,-0.1210,1.1990,-3.1760,20.9470,-36.5800,34.8800
2.0344,0.0190,-0.1230,1.2040,-2.3660,21.4660,-36.8700,34.8400
2.0466,0.0300,-0.1290,1.2200,-2.7790,22.5950,-36.5650,34.8400
2.0535,0.0210,-0.1130,1.2070,-2.1680,23.2670,-34.2600,34.8800
2.0655,-0.0350,-0.1810,1.1810,0.0920,20.7940,-39.4200,34.8400
2.0774,0.0190,-0.1030,1.1840,-1.1760,23.9540,-33.0530,34.7400
2.0849,0.0180,-0.1190,1.1750,-0.9310,23.4500,-34.8850,34.7900
2.0965,0.0160,-0.0950,1.1670,0.7790,23.2520,-36.3660,34.8400
2.1037,0.0250,-0.1090,1.1730,1.9080,23.4050,-36.9470,34.8400
2.1156,0.0300,-0.1040,1.1650,2.3210,23.4350,-36.3360,34.8800
2.1281,0.0320,-0.0880,1.1610,-0.9470,23.9690,-35.4500,34.8400
2.1349,0.0190,-0.0670,1.1540,-0.6410,24.4430,-35.4660,34.7900
2.1470,0.0200,-0.0560,1.1470,-2.6870,24.2140,-35.7860,34.7900
2.1541,0.0180,-0.0690,1.1580,-4.5950,24.4430,-35.0530,34.8400
2.1659,0.0070,-0.0820,1.1420,-6.6410,24.1220,-34.8700,34.7900
2.1782,-0.0050,-0.1070,1.1430,-4.3360,23.8780,-35.6030,34.8800
2.1851,0.0000,-0.1380,1.1450,-6.7330,23.1150,-34.9010,34.8400
2.1971,-0.0100,-0.1360,1.1580,-7.1910,22.7790,-34.6110,34.8800
2.2040,-0.0150,-0.1130,1.1580,-3.2670,22.2440,-35.7100,34.6900
2.2162,-0.0140,-0.1040,1.1500,-2.9160,20.2750,-36.5040,34.7400
2.2280,-0.0030,-0.1040,1.1530,-1.4350,19.0690,-36.1980,34.7900
2.2350,0.0090,-0.1030,1.1630,-1.8020,18.4430,-36.1830,34.7400
2.2475,0.0180,-0.1070,1.1580,-1.7250,18.2600,-36.1680,34.7900
2.2536,0.0220,-0.0970,1.1690,-4.1530,18.3360,-35.5880,34.8800
2.2662,0.0260,-0.0660,1.1590,-3.6030,18.7020,-35.9540,34.8400
2.2778,0.0340,-0.0780,1.1700,-4.4890,18.8550,-37.2210,34.7400
2.2852,0.0310,-0.0620,1.1620,-5.0230,18.7940,-38.1830,34.8800
2.2971,0.0000,-0.1060,1.1560,-1.1450,16.8850,-40.8850,34.8400
2.3042,0.0470,-0.1060,1.1870,-1.8630,17.4050,-40.2900,34.7900
2.3160,0.0300,-0.1320,1.1700,-3.7250,18.6410,-37.8470,34.7900
2.3284,0.0170,-0.1320,1.1780,-3.7250,18.7940,-37.4810,34.8400
2.3353,0.0130,-0.1440,1.1630,-3.6030,18.4890,-37.1150,34.8800
2.3472,0.0140,-0.1250,1.1610,-3.2520,16.9310,-37.3280,34.7900
2.3542,0.0010,-0.1450,1.1570,-2.3210,14.9620,-38.9770,34.8400
2.3662,0.0140,-0.1090,1.1570,-4.0920,14.4270,-37.9540,34.7900
2.3721,0.0070,-0.0940,1.1460,-4.0310,14.5500,-38.6870,34.8800
2.3854,0.0090,-0.0770,1.1620,-1.6790,15.2210,-40.7630,34.9300
2.3975,0.0240,-0.0760,1.1680,-1.3130,16.5950,-40.2750,34.8800
2.4044,0.0150,-0.1030,1.1830,-2.4730,17.3130,-40.0000,34.8800
2.4165,-0.0000,-0.1140,1.1730,-5.6790,18.0150,-38.3820,34.8400
2.4232,-0.0200,-0.1200,1.1740,-5.1600,17.3740,-37.3130,34.9800
2.4353,-0.0250,-0.1240,1.1790,-6.1680,15.5420,-37.5880,34.8400
2.4472,-0.0160,-0.1350,1.1960,-5.9240,15.0380,-36.6110,34.9300
2.4543,-0.0210,-0.1300,1.1940,-6.4890,14.9010,-35.3740,34.8800
2.4662,-0.0110,-0.1250,1.2030,-4.2290,14.0460,-35.7250,34.8400
2.4782,-0.0150,-0.1350,1.1990,-1.1910,13.0230,-36.0760,34.8400
2.4852,-0.0040,-0.1550,1.1960,1.0080,12.0610,-36.9010,34.8800
2.4974,0.0180,-0.1490,1.2160,2.0310,11.1300,-35.9390,34.8400
2.5042,0.0350,-0.1320,1.2030,3.7710,11.3440,-36.1370,34.8400
2.5162,0.0560,-0.1220,1.2090,5.2520,11.8170,-36.6410,34.8800
2.5233,0.0530,-0.0970,1.1980,0.7790,12.6560,-35.7860,34.9300
2.5357,0.0490,-0.0990,1.1880,0.9160,12.7940,-36.7180,34.8400
2.5477,0.0720,-0.0690,1.2070,1.6340,14.0150,-37.6640,34.7900
2.5550,0.0790,-0.0730,1.2070,-0.4120,16.0000,-36.2290,34.9300
2.5666,0.0590,-0.0760,1.1890,0.3970,17.8930,-37.0840,34.8800
2.5737,0.0420,-0.0910,1.1890,-0.6410,18.1070,-36.8240,34.8800
2.5862,0.0310,-0.0940,1.1870,0.4730,18.4430,-37.3130,34.9300
2.5981,0.0420,-0.0910,1.1960,-0.7330,18.6870,-37.0690,34.8800
2.6047,0.0390,-0.1150,1.1850,-1.5570,20.0460,-36.6410,34.7900
2.6173,0.0270,-0.1130,1.1850,-0.5340,19.7250,-37.4350,34.8400
2.6240,0.0120,-0.1060,1.1650,0.2290,19.0080,-38.3820,34.8800
2.6363,0.0160,-0.1030,1.1630,-1.3280,17.4200,-38.3820,34.8800
2.6418,0.0210,-0.1040,1.1680,-1.8930,18.1370,-42.4270,34.8400
2.6555,0.0400,-0.0580,1.1900,-0.9010,17.3130,-37.6340,34.7900
2.6674,0.0450,-0.0780,1.1810,-0.7020,18.5340,-37.5420,34.8400
2.6744,0.0490,-0.0940,1.2010,-1.2820,19.1760,-38.0610,34.7900
2.6867,0.0380,-0.0980,1.1870,-1.0840,19.2060,-38.8400,34.8800
2.6936,0.0340,-0.0950,1.1820,1.5420,18.0610,-40.0760,34.8400
2.7056,0.0380,-0.1120,1.1980,1.1150,17.4350,-39.2520,34.9300
2.7178,0.0550,-0.1120,1.2110,-0.1370,17.9850,-37.4810,34.7900
2.7244,0.0490,-0.0970,1.1990,-0.2900,18.9310,-36.7940,34.8400
2.7368,0.0380,-0.1130,1.1720,0.2600,19.0080,-37.5880,34.8800
2.7440,0.0400,-0.1070,1.1800,0.9770,18.1830,-38.9920,34.7900
2.7562,0.0490,-0.1040,1.1720,0.4270,18.5500,-38.9470,34.7400
2.7682,0.0420,-0.0940,1.1800,-0.0150,18.8240,-38.2290,34.8800
2.7750,0.0320,-0.0620,1.1690,-0.0150,19.7100,-37.8630,34.7900
2.7874,0.0390,-0.0640,1.1710,1.3130,19.6950,-39.7710,34.8400
2.7943,0.0450,-0.0830,1.1850,1.0530,20.1830,-39.9850,34.9800
2.8062,0.0370,-0.0980,1.1690,-0.1830,20.8090,-39.0080,34.8800
2.8137,0.0270,-0.0950,1.1640,-2.2440,20.7180,-38.0920,34.8400
2.8250,0.0270,-0.1190,1.1670,-1.9390,20.2140,-37.1150,34.8800
2.8375,0.0210,-0.1210,1.1690,-2.5190,20.0000,-38.4270,34.9800
2.8444,0.0190,-0.0930,1.1740,-1.1910,20.0000,-37.6790,34.8400
2.8566,0.0150,-0.0910,1.1820,-0.4730,20.1530,-38.1530,34.7900
2.8634,0.0150,-0.0980,1.1680,-0.0460,20.2290,-37.8780,34.8800
2.8755,0.0170,-0.1020,1.1690,-0.1980,20.2290,-36.6560,34.8400
2.8879,0.0080,-0.1090,1.1490,-1.8630,19.7860,-35.0380,34.7900
2.8947,0.0060,-0.0980,1.1480,1.4500,18.8550,-36.9920,34.8800
2.9068,0.0230,-0.0890,1.1410,1.6340,17.1450,-37.2370,34.8400
2.9140,0.0290,-0.1040,1.1540,0.9920,16.5800,-36.5500,34.8800
2.9263,0.0320,-0.0860,1.1470,2.7940,18.1220,-36.9470,34.7900
2.9382,0.0360,-0.0800,1.1580,-2.8400,16.8240,-35.0230,34.8400
2.9451,0.0340,-0.0570,1.1630,-0.1370,17.4810,-35.2370,34.8800
2.9573,0.0380,-0.0660,1.1650,-3.8020,17.6340,-34.5190,34.8400
2.9641,0.0350,-0.0660,1.1770,-3.9850,19.1760,-35.2670,34.9300
2.9763,0.0230,-0.0900,1.1750,-4.8090,20.1830,-34.4730,34.8800
2.9881,0.0270,-0.1190,1.1610,-6.6560,21.6180,-34.0460,34.8400
2.9954,0.0150,-0.1170,1.1630,-6.7940,22.2440,-34.1070,34.9300
3.0072,0.0060,-0.1280,1.1500,-6.5190,21.7710,-33.7560,34.8800
3.0144,-0.0060,-0.1250,1.1520,-6.4270,20.4890,-33.8170,34.8400
3.0262,-0.0160,-0.1060,1.1360,-7.5570,21.4660,-34.2140,34.8400
3.0383,-0.0130,-0.0820,1.1450,-3.8630,17.0990,-34.8550,34.9800
3.0453,0.0040,-0.0810,1.1640,-3.0990,16.7020,-35.5420,34.7400
3.0573,0.0190,-0.0760,1.1820,-2.6110,15.9240,-35.6790,34.8800
3.0642,0.0260,-0.0950,1.1810,-3.2370,15.8630,-34.6410,34.7900
3.0762,0.0440,-0.0870,1.1870,-4.5650,15.5270,-34.3210,34.8400
3.0820,0.0470,-0.1100,1.1830,-4.3660,15.0530,-34.7330,34.8800
3.0954,0.0570,-0.1030,1.1790,-3.0840,15.4350,-34.5650,34.8800
3.1075,0.0660,-0.1090,1.1870,-4.0150,16.1530,-33.7100,34.8400
3.1145,0.0600,-0.1010,1.1900,-5.0840,15.9850,-33.9690,34.7900
3.1264,0.0640,-0.1030,1.1900,-4.0150,15.9240,-34.6410,34.8800
3.1332,0.0630,-0.0990,1.1930,-3.9080,15.8630,-34.0460,34.8400
3.1457,0.0620,-0.0810,1.1850,-3.4500,16.0000,-35.0990,34.9800
3.1574,0.0550,-0.0830,1.1760,-0.7790,15.9240,-35.8930,34.9300
3.1644,0.0580,-0.0910,1.1750,0.1220,15.6180,-36.9160,34.8800
3.1768,0.0730,-0.0970,1.1850,-2.1070,15.1450,-36.7480,34.7900
3.1834,0.0650,-0.0780,1.1870,-2.2750,15.9690,-35.9850,34.8400
3.1959,0.0710,-0.0810,1.1660,-4.3970,16.1070,-35.8170,34.8400
3.2076,0.0740,-0.0850,1.1700,-4.5340,16.4430,-36.4270,34.7900
3.2149,0.0830,-0.0910,1.1730,-5.0990,16.6110,-37.4050,34.8400
3.2268,0.0620,-0.0940,1.1470,-5.8930,15.8630,-37.5570,34.8800
3.2340,0.0830,-0.1230,1.1880,-3.6950,14.1070,-40.5040,34.8800
3.2459,0.0830,-0.0890,1.1880,-5.4810,15.2060,-38.4120,34.8400
3.2580,0.0980,-0.0630,1.1870,-1.5570,18.1830,-40.5040,34.8800
3.2646,0.1000,-0.0570,1.1880,-2.3050,20.0920,-40.8090,34.8800
3.2771,0.0750,-0.0770,1.1770,-3.0690,21.4500,-40.4270,34.9300
3.2836,0.0590,-0.0700,1.1620,-4.2440,21.5110,-40.1070,34.8800
3.2962,0.0410,-0.0900,1.1560,-4.8850,20.9160,-40.8850,34.7900
3.3081,0.0470,-0.1140,1.1500,-2.7180,19.7710,-40.9470,34.9300
3.3149,0.0490,-0.1310,1.1800,-2.5500,16.5190,-41.6490,34.8800
3.3274,0.0550,-0.1120,1.1520,-5.0530,19.1150,-39.8020,34.8800
3.3342,0.0470,-0.0870,1.1680,-4.0000,16.3510,-40.3820,34.8400
3.3463,0.0470,-0.0750,1.1750,-4.5040,16.7330,-40.5950,34.8800
3.3581,0.0590,-0.0770,1.1710,-4.6110,16.5190,-39.9690,34.9300
3.3652,0.0570,-0.0930,1.1640,-4.6110,16.8850,-38.7020,34.8400
3.3772,0.0580,-0.1060,1.1580,-4.9470,18.0000,-38.3970,34.8800
3.3841,0.0700,-0.1190,1.1630,-3.1150,16.0000,-38.0610,34.8400
3.3963,0.0640,-0.1360,1.1740,-4.6720,16.6870,-39.3590,34.9300
3.4035,0.0590,-0.1010,1.1770,-2.9620,16.7020,-40.0920,34.8800
3.4152,0.0640,-0.0980,1.1780,-4.2900,16.6110,-40.0610,34.8400
3.4274,0.0920,-0.0710,1.1950,-4.4270,17.9540,-42.5800,34.9300
3.4343,0.0610,-0.0860,1.1820,-2.2600,18.0000,-43.9240,34.8800
3.4466,0.0620,-0.1130,1.1610,-4.5340,18.3510,-44.2140,34.8400
3.4534,0.0520,-0.1170,1.1680,-4.8090,19.1150,-40.8850,34.8800
3.4655,0.0470,-0.1150,1.1640,-7.3130,18.9160,-39.9850,34.8800
3.4778,0.0400,-0.0980,1.1770,-3.7860,19.1910,-41.0840,34.8400
3.4846,0.0430,-0.0910,1.1750,-2.7630,18.1530,-42.0610,34.7900
3.4966,0.0520,-0.1080,1.1830,-3.5270,18.4270,-41.3280,34.8800
3.5038,0.0450,-0.1420,1.1980,-3.4960,18.8240,-40.5800,34.7400
3.5157,0.0450,-0.1630,1.1930,-3.8470,18.8700,-39.2820,34.7900
3.5279,0.0360,-0.1640,1.1820,-4.1680,18.1530,-39.2520,34.8400
3.5349,0.0520,-0.1560,1.1820,-1.5880,16.1070,-39.6790,34.8800
3.5468,0.0550,-0.1500,1.1620,-1.7400,15.5110,-39.4660,34.7900
3.5540,0.0760,-0.1310,1.1780,-1.6640,14.9920,-39.1760,34.8400
3.5657,0.0910,-0.0820,1.1990,-2.5500,14.5800,-39.0840,34.8400
3.5780,0.0850,-0.0360,1.1860,-2.7940,15.6640,-38.6720,34.7900
3.5849,0.0500,-0.1030,1.1580,2.9160,14.0610,-44.9160,34.8400
3.5970,0.0840,-0.0850,1.1720,2.4730,13.3890,-44.0150,34.7900
3.6042,0.1140,-0.1260,1.1940,0.9310,14.1070,-43.3130,34.8800
3.6163,0.1290,-0.1240,1.2040,0.6720,15.2370,-41.6490,34.7400
3.6233,0.1220,-0.1330,1.1950,-1.0380,16.7790,-41.5730,34.9800
3.6354,0.1210,-0.1000,1.2080,-1.0530,18.1220,-41.6490,34.8800
3.6475,0.1220,-0.0890,1.1880,1.1150,18.7940,-42.9470,34.8400
3.6549,0.1390,-0.0820,1.1920,0.3970,20.3510,-42.8850,34.8800
3.6669,0.1370,-0.1030,1.1930,-0.7940,21.8020,-42.7180,34.8800
3.6734,0.1270,-0.1180,1.1800,-1.2980,22.6110,-42.5040,34.9300
3.6861,0.1200,-0.1240,1.1770,-2.2750,21.6340,-41.9690,34.7900
3.6978,0.1020,-0.1020,1.1590,-1.7400,21.0380,-42.7630,34.7400
3.7050,0.1030,-0.0740,1.1510,-1.4050,19.8630,-43.8470,34.8400
3.7166,0.1220,-0.0590,1.1730,0.0920,19.9390,-46.0310,34.8800
3.7236,0.1270,-0.0830,1.1800,-1.1150,20.5650,-46.6560,34.8400
3.7361,0.1200,-0.0930,1.1550,-1.5420,21.1910,-46.9010,34.8400
3.7479,0.1060,-0.1100,1.1510,-1.2520,21.4810,-46.8090,34.7900
3.7552,0.1150,-0.1350,1.1590,-2.3050,21.6180,-46.9620,34.8400
3.7669,0.1190,-0.1340,1.1480,-3.0230,21.2520,-46.3050,34.8400
3.7742,0.1120,-0.1330,1.1480,-2.9310,20.8550,-45.7560,34.8800
3.7862,0.1070,-0.0970,1.1280,-3.4050,20.7940,-45.5880,34.9300
3.7981,0.1270,-0.1110,1.1420,-3.7710,20.6870,-47.2060,34.7900
3.8051,0.1340,-0.1230,1.1360,-2.7940,19.4500,-48.6870,34.8800
3.8173,0.1280,-0.0920,1.1460,-1.4960,18.7630,-50.9310,34.8400
3.8238,0.1260,-0.0740,1.1500,-2.6560,16.9010,-52.1220,34.7900
3.8364,0.1460,-0.0510,1.1680,-2.4430,19.3890,-52.6110,34.7900
3.8420,0.1590,-0.0600,1.1710,-1.8170,19.1910,-53.7400,34.8400
3.8555,0.1600,-0.0960,1.2060,-1.2670,22.3510,-54.9620,34.8800
3.8675,0.1560,-0.1400,1.1880,-3.1450,23.5420,-55.0530,34.8800
3.8742,0.1390,-0.1680,1.1740,-3.8470,23.9540,-54.2440,34.7400
3.8867,0.1300,-0.1750,1.1590,-3.9850,23.7250,-53.7400,34.8800
3.8936,0.1350,-0.1940,1.1690,-4.4120,22.6720,-53.4660,34.9300
3.9057,0.1360,-0.1920,1.1550,-5.1600,22.8700,-53.4200,34.8800
3.9176,0.1380,-0.1890,1.1740,-7.5570,22.6870,-51.6950,34.7900
3.9244,0.1300,-0.1510,1.1760,-8.2140,22.8400,-50.8850,34.8400
3.9366,0.1240,-0.1440,1.1780,-7.9080,21.7710,-52.9160,34.9300
3.9437,0.1250,-0.1230,1.1750,-2.9160,22.1830,-54.7330,34.8800
3.9556,0.1360,-0.1320,1.1930,-3.2370,23.7560,-54.8700,34.8400
3.9676,0.1360,-0.1410,1.1870,-4.6260,24.5950,-54.4890,34.7900
3.9747,0.1250,-0.1370,1.1700,-4.9470,23.4200,-54.4430,34.8800
3.9868,0.1200,-0.1400,1.1760,-6.2900,22.7180,-54.9470,34.8400
3.9938,0.1380,-0.1430,1.1950,-4.6110,21.6790,-55.6490,34.8800
