Time,AX,AY,AZ,GX,GY,GZ,T
0.0000,0.0000,-0.1470,1.1810,-4.1070,18.2290,-60.4580,34.8800
0.0004,0.0100,-0.1230,1.1840,-7.7710,19.6490,-57.0990,34.9800
0.0008,0.0010,-0.1180,1.1860,-5.2820,21.8630,-55.4200,34.8400
0.0012,-0.0030,-0.1140,1.1790,-6.2750,22.3660,-52.3510,34.9800
0.0015,0.0020,-0.1050,1.1660,-6.5950,22.0920,-54.5950,34.8800
0.0019,0.0080,-0.0930,1.1740,-4.9010,21.7710,-59.0530,34.9300
0.0023,0.0050,-0.1010,1.1870,-4.2900,22.0610,-60.4730,34.9800
0.0027,-0.0200,-0.1000,1.1810,-3.7560,22.0920,-60.5650,34.9800
0.0030,-0.0210,-0.1090,1.1780,-1.0380,22.0610,-61.3130,35.0200
0.0033,-0.0100,-0.1330,1.1810,-1.0690,22.0610,-60.1070,34.9800
0.0037,-0.0110,-0.1120,1.2030,-2.4270,21.9540,-59.1150,34.9300
0.0040,-0.0120,-0.0850,1.2000,-3.0840,21.2060,-59.7560,34.9300
0.0045,-0.0160,-0.0690,1.2150,1.8780,22.2440,-61.3590,34.8800
0.0049,-0.0100,-0.0940,1.2150,-1.5110,22.7330,-58.7940,34.9300
0.0052,-0.0170,-0.1120,1.2170,-4.0150,24.2900,-55.8170,34.8400
0.0055,-0.0410,-0.1110,1.1970,-3.4660,23.7250,-55.8630,34.9800
0.0058,-0.0450,-0.1100,1.1920,-1.4660,22.6720,-55.9390,35.0200
0.0060,-0.0440,-0.1160,1.2020,-0.1530,23.0230,-56.3210,35.0200
0.0063,-0.0290,-0.1230,1.2120,0.4120,23.4350,-54.5800,34.9800
0.0066,-0.0300,-0.1310,1.2050,1.0840,26.3360,-52.2440,34.9300
0.0069,-0.0340,-0.1230,1.1990,-0.4120,26.3820,-51.3130,34.9300
0.0072,-0.0500,-0.1300,1.1820,0.0610,25.4050,-51.4350,34.8800
0.0074,-0.0450,-0.1560,1.1800,1.9240,25.2820,-52.2440,35.0200
0.0077,-0.0480,-0.1630,1.1880,1.8320,25.0230,-51.4960,35.0200
0.0080,-0.0450,-0.1310,1.1920,1.8320,25.9690,-50.2440,34.8800
0.0083,-0.0520,-0.1120,1.1760,3.9240,27.0690,-49.6340,34.9300
0.0086,-0.0520,-0.1020,1.1480,3.7400,25.7710,-50.7020,34.8800
0.0088,-0.0310,-0.0960,1.1460,5.8470,24.8850,-51.5570,34.8800
0.0091,-0.0210,-0.0990,1.1380,4.1220,24.4430,-51.4200,34.9300
0.0094,-0.0160,-0.0790,1.1460,1.9540,23.8630,-50.5040,34.8800
0.0097,-0.0210,-0.0910,1.1440,3.6490,23.9540,-48.6260,34.9800
0.0100,-0.0070,-0.0920,1.1350,1.7560,24.2900,-47.3440,34.9300
0.0103,-0.0210,-0.0790,1.1340,1.0080,22.5800,-48.0460,34.9800
0.0108,0.0040,-0.0610,1.1270,3.5570,22.0920,-51.3130,34.8400
0.0111,0.0170,-0.0550,1.1550,2.9470,22.6720,-50.6870,34.8800
0.0114,0.0200,-0.0590,1.1580,1.0230,23.9240,-50.6410,34.9800
0.0116,0.0140,-0.0530,1.1530,-2.3360,25.2210,-49.4960,35.0200
0.0119,0.0170,-0.0740,1.1500,-2.4580,25.8780,-50.9010,34.8400
0.0122,0.0100,-0.0680,1.1610,0.4730,26.3360,-53.4500,34.9800
0.0124,0.0060,-0.0950,1.1660,-1.7400,26.6720,-50.8850,35.0200
0.0127,-0.0180,-0.0900,1.1540,-3.6640,26.3360,-50.2750,34.8800
0.0129,-0.0200,-0.0810,1.1480,-4.3820,24.7330,-49.3280,34.9800
0.0132,-0.0220,-0.0960,1.1520,-6.4580,23.2060,-49.5270,34.9300
0.0134,-0.0200,-0.1050,1.1730,0.3820,22.0460,-53.7400,34.9800
0.0137,-0.0030,-0.0950,1.1830,3.4050,22.4120,-54.1980,34.8800
0.0139,-0.0110,-0.0900,1.1740,-0.0310,21.7100,-53.5420,34.9300
0.0145,-0.0120,-0.0860,1.1660,-0.7790,21.4050,-52.7790,34.9800
0.0149,0.0090,-0.1110,1.1800,-1.2210,21.5110,-53.2370,34.8800
0.0152,0.0090,-0.0920,1.1830,-1.5730,22.3660,-52.1370,34.9300
0.0154,0.0060,-0.0770,1.1690,-2.5340,23.2210,-49.5420,35.0700
0.0157,-0.0140,-0.0790,1.1710,-6.8240,23.2060,-47.0530,34.9800
0.0159,-0.0140,-0.1020,1.1830,-7.0530,22.8400,-46.6560,34.9300
0.0162,-0.0220,-0.1080,1.1740,-6.3660,22.2750,-46.9010,34.8800
0.0164,-0.0390,-0.0830,1.1620,-2.5190,19.9850,-48.6870,34.9300
0.0167,-0.0350,-0.1270,1.1550,0.1370,16.8400,-51.5570,34.9300
0.0169,0.0000,-0.1250,1.1820,-1.3440,15.0380,-51.8780,34.9800
0.0172,0.0040,-0.1330,1.1850,-0.2600,14.6870,-52.6410,34.9300
0.0175,0.0140,-0.1150,1.1980,4.7790,15.8170,-54.5190,34.9300
0.0177,0.0220,-0.1110,1.1930,3.9390,17.4500,-51.9080,34.8800
0.0180,0.0280,-0.1160,1.1970,0.3510,18.7940,-48.8850,34.9300
0.0182,0.0270,-0.0860,1.1910,-1.3590,19.7710,-45.7400,34.9300
0.0185,0.0160,-0.0660,1.1790,0.2140,19.9240,-46.8550,34.8800
0.0188,0.0200,-0.0590,1.1820,0.7790,19.1300,-46.8550,34.8400
0.0190,0.0380,-0.0760,1.1890,-3.4200,18.8240,-46.0000,34.9300
0.0192,0.0340,-0.0930,1.1890,-4.3510,19.1910,-46.9470,34.8800
0.0194,0.0210,-0.0980,1.1750,-2.7480,19.1910,-48.4430,35.0200
0.0197,0.0270,-0.0940,1.1780,1.3590,19.3890,-49.9080,34.9300
0.0199,0.0210,-0.1140,1.1880,0.0920,18.3820,-49.7400,34.9800
0.0201,0.0250,-0.1000,1.1900,1.8020,18.1530,-50.9770,34.9300
0.0203,0.0310,-0.1000,1.1990,1.5420,18.1530,-51.0530,34.9300
0.0205,0.0280,-0.0950,1.1900,0.0920,19.0530,-49.9690,34.9800
0.0208,0.0460,-0.1020,1.1940,-2.9010,20.7020,-47.0080,34.9300
0.0210,0.0360,-0.1020,1.1820,-4.9620,22.1830,-45.4660,34.9800
0.0212,0.0410,-0.1050,1.1860,-5.1600,23.4050,-45.1910,34.9800
0.0214,0.0340,-0.0990,1.1770,-4.6410,25.1150,-44.2750,34.9300
0.0217,0.0260,-0.0910,1.1770,-7.0530,27.2370,-41.6180,34.9800
0.0219,-0.0080,-0.0860,1.1580,-5.5570,27.1450,-42.5950,34.8800
0.0221,-0.0290,-0.0870,1.1400,-3.6790,24.9310,-44.8240,34.9300
0.0223,-0.0270,-0.1100,1.1370,-2.7940,21.8930,-46.3360,34.8800
0.0226,-0.0170,-0.1350,1.1540,-0.7480,19.7250,-48.0310,34.8800
0.0228,0.0030,-0.1350,1.1820,0.3660,19.0840,-47.2370,34.9300
0.0230,0.0160,-0.1220,1.1900,-0.0920,19.4050,-46.8240,34.8800
0.0232,0.0180,-0.1070,1.1850,-1.4810,20.5650,-44.7480,34.9300
0.0234,0.0240,-0.1160,1.1910,-2.6260,21.5110,-42.9770,34.8800
0.0236,0.0170,-0.1120,1.1850,-1.4960,21.0380,-42.8700,34.9800
0.0238,0.0220,-0.1080,1.1750,-1.2670,20.0920,-42.1070,34.9300
0.0240,0.0290,-0.1040,1.1610,0.0760,19.2980,-42.8700,35.0200
0.0242,0.0410,-0.0960,1.1760,0.3820,19.0080,-43.4350,34.9800
0.0244,0.0520,-0.0860,1.1750,-0.3050,19.9390,-43.2670,34.9300
0.0246,0.0570,-0.0900,1.1740,-1.6490,21.0840,-42.2140,34.8800
0.0248,0.0520,-0.0740,1.1660,-3.0380,21.6790,-42.5650,34.9800
0.0250,0.0400,-0.0810,1.1690,-1.0080,20.7330,-45.1910,34.9300
0.0252,0.0650,-0.0390,1.1700,-0.3820,21.1760,-45.2210,34.9800
0.0254,0.0520,-0.0530,1.1600,-4.2440,22.0920,-43.0380,34.7900
0.0256,0.0440,-0.0570,1.1580,-6.2440,22.6560,-43.0530,34.9300
0.0258,0.0260,-0.0740,1.1560,-4.0760,22.3360,-44.8550,34.9800
0.0261,0.0150,-0.0960,1.1600,-3.9240,21.6950,-44.6560,34.9800
0.0263,0.0070,-0.1040,1.1500,-4.8700,20.7330,-43.8780,34.9300
0.0265,-0.0030,-0.1160,1.1450,-5.8170,19.8170,-43.4660,34.9800
0.0267,-0.0010,-0.1190,1.1430,-6.1680,19.3130,-42.7790,34.9800
0.0269,0.0100,-0.1270,1.1590,-5.4960,19.4660,-42.2140,34.9300
0.0271,0.0230,-0.1240,1.1680,-4.5500,19.6790,-42.0310,34.9800
0.0274,0.0230,-0.1130,1.1620,-4.9620,19.5420,-42.0460,34.9300
0.0276,0.0140,-0.0980,1.1650,-5.0380,18.7480,-41.8170,34.9300
0.0278,0.0260,-0.1040,1.1470,-2.9620,18.0310,-43.1300,34.9800
0.0280,0.0430,-0.0990,1.1720,-0.9160,17.5420,-44.8400,35.0200
0.0282,0.0480,-0.1020,1.1740,-0.5650,18.1370,-45.5420,34.9300
0.0284,0.0600,-0.0940,1.1830,-0.3820,19.0530,-44.8400,34.7900
0.0286,0.0500,-0.0870,1.1770,-1.3440,20.1530,-44.3820,34.8400
0.0288,0.0490,-0.0820,1.1710,-1.9390,20.4430,-44.4270,34.9300
0.0290,0.0460,-0.0830,1.1890,-2.4580,20.3660,-44.4120,34.9800
0.0292,0.0410,-0.0810,1.1930,-2.5340,20.4730,-45.3130,34.9300
0.0294,0.0530,-0.0860,1.1920,-1.9390,21.2060,-45.2060,34.9800
0.0296,0.0460,-0.0880,1.1980,-3.8630,22.0920,-44.0460,34.8800
0.0298,0.0420,-0.0950,1.1930,-2.6720,22.8240,-44.3510,34.9300
0.0300,0.0310,-0.1120,1.1840,-2.4430,22.6260,-44.1070,34.8800
0.0302,0.0310,-0.1240,1.1870,-0.6720,22.5950,-45.2370,34.9800
0.0303,0.0300,-0.1060,1.1880,0.5650,23.2820,-45.8630,35.0200
0.0305,0.0150,-0.0960,1.1810,-1.0380,22.6560,-44.8850,34.9800
0.0306,0.0200,-0.1100,1.1720,-1.5270,22.1220,-44.8400,34.9300
0.0308,0.0320,-0.1170,1.1810,-1.8320,22.4430,-44.5340,34.8800
0.0309,0.0230,-0.0960,1.1760,-3.4500,22.4270,-42.8090,34.8800
0.0311,0.0080,-0.0970,1.1540,-4.8400,21.8630,-41.6790,34.9300
0.0418,0.0090,-0.1020,1.1650,-3.4960,21.1300,-43.4500,35.0200
0.0484,0.0220,-0.0780,1.1580,-1.2980,20.9470,-44.3820,34.9800
0.0607,0.0170,-0.0780,1.1650,-1.3590,20.4890,-44.2900,34.9300
0.0675,0.0110,-0.0930,1.1660,-1.9690,20.0920,-45.0690,34.8800
0.0798,0.0190,-0.0930,1.1670,-2.2290,19.3740,-45.7400,34.8800
0.0920,0.0290,-0.1000,1.1730,-2.9010,19.6950,-44.2900,34.9300
0.0989,0.0190,-0.1060,1.1750,-4.3970,19.7400,-42.8700,34.9300
0.1111,0.0260,-0.1020,1.1850,-3.6030,19.7400,-43.6950,34.9800
0.1177,0.0230,-0.1040,1.1640,1.5880,19.5110,-46.3360,34.9300
0.1300,0.0330,-0.0970,1.1780,-0.2900,19.1760,-45.2820,34.7900
0.1355,0.0340,-0.1060,1.1930,-2.5500,19.5730,-43.8320,34.8800
0.1489,0.0320,-0.0830,1.1960,-2.8850,20.7180,-43.9690,34.9300
0.1613,0.0330,-0.0670,1.1860,-0.2750,21.9390,-44.8700,34.8800
0.1680,0.0100,-0.0690,1.1740,-0.3360,21.4350,-45.1300,34.9800
0.1802,0.0080,-0.0790,1.1660,-1.3590,20.7330,-45.3740,34.9300
0.1869,0.0040,-0.0850,1.1650,-0.3510,20.3050,-46.8240,34.8800
0.1992,0.0220,-0.0840,1.1920,-0.9470,20.3050,-47.1450,34.9300
0.2111,0.0350,-0.1030,1.1960,-3.8780,21.6490,-45.9540,34.9300
0.2181,0.0260,-0.1060,1.2050,-3.2520,23.6640,-45.5420,34.8800
0.2303,0.0000,-0.1170,1.1850,-3.7400,24.7480,-44.4120,34.9300
0.2372,-0.0270,-0.1290,1.1700,-2.0920,23.4960,-45.3590,35.0200
0.2492,-0.0310,-0.1420,1.1590,0.1680,21.7250,-48.0460,34.9800
0.2615,-0.0220,-0.1220,1.1750,1.3130,20.4430,-50.4120,34.9300
0.2683,0.0030,-0.1270,1.1810,0.7790,19.4810,-46.7020,34.9300
0.2804,0.0100,-0.1080,1.1770,-1.2520,21.2210,-46.7480,34.8800
0.2872,0.0110,-0.0850,1.1790,-2.0460,21.6790,-45.8020,34.9300
0.2995,0.0100,-0.0700,1.1830,-2.6110,23.0840,-45.9850,34.9800
0.3119,0.0050,-0.0610,1.1780,-0.7790,22.9160,-46.9010,34.8800
0.3185,0.0010,-0.0800,1.1790,0.3050,22.3050,-45.9080,34.8400
0.3308,-0.0070,-0.1040,1.1620,0.0460,22.4120,-45.1600,34.8800
0.3377,-0.0020,-0.1090,1.1690,-0.3050,22.4120,-44.0150,34.9800
0.3501,0.0020,-0.1180,1.1680,-2.2600,22.0000,-43.9540,34.9300
0.3619,0.0020,-0.1100,1.1600,-2.8090,21.9080,-43.8780,34.9800
0.3694,0.0040,-0.1240,1.1700,-2.6720,22.0000,-45.1760,34.9300
0.3808,0.0140,-0.1080,1.1820,-3.2820,22.9620,-45.2210,34.9800
0.3878,0.0100,-0.0930,1.1730,-3.3280,23.7560,-44.6870,34.9800
0.3998,0.0090,-0.0860,1.1580,-2.5800,24.6870,-44.2600,34.9300
0.4121,-0.0020,-0.1010,1.1460,-3.2980,24.8550,-45.0380,34.9300
0.4187,-0.0120,-0.1130,1.1640,-2.7630,24.1220,-45.9540,34.8800
0.4310,-0.0170,-0.1210,1.1460,-8.4430,22.6720,-43.2820,34.9300
0.4376,-0.0360,-0.1090,1.1410,-7.3130,21.6180,-42.1070,34.9800
0.4501,-0.0160,-0.1070,1.1560,-7.4960,17.0690,-40.8850,34.9800
0.4619,0.0020,-0.1090,1.1630,-5.3590,19.5730,-39.8930,34.9300
0.4688,0.0190,-0.1250,1.1880,-5.0530,19.3590,-39.7100,34.8800
0.4808,0.0250,-0.0780,1.1850,-9.1600,19.6640,-38.0000,34.8800
0.4875,-0.0180,-0.1140,1.1710,-11.2820,21.7560,-40.2750,34.9300
0.4996,-0.0330,-0.0600,1.1630,-3.0230,24.0150,-39.4660,34.8800
0.5120,-0.0190,-0.0910,1.1610,0.3210,23.3590,-38.9310,34.8800
0.5191,0.0010,-0.0980,1.1690,-1.2980,23.6180,-39.7400,34.9300
0.5308,-0.0080,-0.0840,1.1650,-1.9390,23.8320,-36.7480,34.8800
0.5375,-0.0160,-0.1010,1.1430,-3.2520,22.5040,-35.2370,34.9300
0.5498,-0.0010,-0.0880,1.1640,-6.1680,22.3970,-36.3820,34.9300
0.5617,-0.0040,-0.0780,1.1580,-4.8700,22.4580,-36.9620,34.7900
0.5685,0.0010,-0.0820,1.1560,-4.3360,21.7860,-38.4890,34.9300
0.5805,0.0180,-0.1060,1.1880,-3.0080,22.6260,-39.6950,35.0200
0.5873,0.0150,-0.1240,1.1800,-5.0840,23.9390,-38.6870,34.8800
0.5997,0.0020,-0.1170,1.1700,-6.4580,24.7630,-37.9690,34.9300
0.6118,-0.0130,-0.1100,1.1620,-8.0000,24.0150,-35.0690,34.8800
0.6185,-0.0480,-0.1320,1.1290,-6.0150,21.4050,-38.2600,34.9800
0.6306,-0.0460,-0.1110,1.1380,-4.6410,17.8020,-40.5190,35.0200
0.6374,-0.0360,-0.1030,1.1450,0.9620,15.3280,-43.1600,34.8800
0.6498,0.0140,-0.0990,1.1820,1.4050,15.2370,-44.5650,34.8800
0.6618,0.0120,-0.1130,1.1790,1.2820,17.4050,-44.4730,34.9300
0.6687,0.0180,-0.0990,1.1880,-3.1300,20.0150,-40.9470,34.8800
0.6809,-0.0100,-0.0960,1.1670,-6.5340,20.3360,-36.7940,34.9800
0.6876,-0.0140,-0.1210,1.1750,-6.3660,19.6340,-36.0000,34.8800
0.6997,-0.0040,-0.1290,1.1830,-7.1150,18.7330,-36.3510,34.8800
0.7118,0.0130,-0.1420,1.2040,-5.5110,18.8550,-36.2600,34.9300
0.7186,0.0190,-0.1300,1.2020,-6.3210,19.9690,-33.4660,34.9300
0.7311,0.0050,-0.1410,1.1770,-9.2210,20.7480,-30.2900,34.8800
0.7377,-0.0150,-0.1160,1.1850,-5.0840,18.5500,-29.8020,34.9300
0.7498,0.0020,-0.1280,1.1770,-1.9690,18.1220,-32.4580,34.8800
0.7619,0.0110,-0.1150,1.1790,-1.9850,18.3970,-33.5880,34.8800
0.7685,0.0100,-0.1150,1.1760,-2.0760,18.5190,-33.8320,34.9300
0.7809,0.0060,-0.1090,1.1610,-2.5950,19.0990,-33.7710,34.8800
0.7876,-0.0070,-0.1090,1.1560,-4.4730,18.4730,-32.0460,34.8800
0.8000,-0.0170,-0.1090,1.1510,-3.9850,18.1980,-31.7250,34.9300
0.8119,-0.0200,-0.1200,1.1600,-3.8020,16.9470,-31.6340,34.8800
0.8189,-0.0190,-0.1220,1.1500,-3.0230,15.1910,-31.7860,34.9800
0.8308,0.0070,-0.1380,1.1720,-2.8550,13.9390,-32.7630,34.9300
0.8376,0.0300,-0.1220,1.1770,-0.7480,13.8470,-34.1370,34.8800
0.8497,0.0560,-0.1150,1.1850,-1.4810,14.1980,-34.4730,34.9800
0.8619,0.0660,-0.1100,1.1970,-2.7330,15.2670,-34.8090,34.9300
0.8686,0.0860,-0.0890,1.2120,-4.1220,17.6030,-34.5340,34.8800
0.8810,0.0810,-0.0780,1.2080,-5.0380,21.0530,-33.5880,34.9300
0.8877,0.0660,-0.0920,1.2090,-6.7020,23.1600,-33.2980,34.9300
0.9000,0.0330,-0.1060,1.1890,-4.9010,25.3280,-34.1680,34.9800
0.9121,0.0180,-0.1270,1.1740,-3.3890,25.7860,-35.4050,34.9300
0.9193,-0.0160,-0.1360,1.1620,-4.9470,25.0530,-34.6870,34.9300
0.9310,-0.0300,-0.1320,1.1490,-1.8320,23.4500,-35.8780,34.8800
0.9378,-0.0240,-0.1340,1.1540,0.5800,21.3740,-36.8700,34.8400
0.9500,-0.0110,-0.1280,1.1670,2.1070,20.6870,-37.4810,34.9800
0.9621,0.0120,-0.1270,1.1750,-0.5190,21.1600,-34.8550,34.9800
0.9689,0.0000,-0.1220,1.1660,-2.0460,22.3970,-33.6340,34.9300
0.9811,-0.0050,-0.1270,1.1580,-1.4960,22.5950,-33.8780,34.9800
0.9879,-0.0080,-0.1100,1.1530,-1.1300,21.6180,-34.6260,34.9800
1.0001,-0.0160,-0.0910,1.1650,-1.5270,21.2520,-34.2900,34.9300
1.0120,-0.0180,-0.0910,1.1460,-2.8400,21.1760,-33.4960,34.8800
1.0187,-0.0440,-0.1000,1.1310,-2.6720,20.1220,-34.0760,34.9800
1.0308,-0.0460,-0.1080,1.1270,-2.0920,18.7630,-35.4350,34.9300
1.0375,-0.0420,-0.1050,1.1250,-1.8470,17.1910,-35.3890,34.9800
1.0496,-0.0270,-0.1280,1.1380,-4.5950,15.6030,-36.4270,34.9300
1.0615,-0.0300,-0.1140,1.1590,0.5950,16.1980,-37.1150,34.9800
1.0683,-0.0270,-0.1080,1.1520,-2.2900,15.7400,-35.1600,34.9800
1.0805,-0.0400,-0.1230,1.1620,-0.6260,14.0760,-36.7940,34.8400
1.0871,-0.0380,-0.1490,1.1500,0.4270,15.5570,-36.8850,34.7900
1.0995,-0.0310,-0.1630,1.1590,-0.7180,14.4730,-35.7250,34.9800
1.1115,-0.0310,-0.1540,1.1650,-1.2370,14.0150,-33.6490,34.9300
1.1182,-0.0330,-0.1460,1.1590,-3.0080,13.6030,-31.3440,34.9800
1.1303,-0.0120,-0.1210,1.1720,-4.7790,12.7940,-30.2140,34.9800
1.1370,-0.0010,-0.0960,1.1720,-2.9010,12.7480,-30.0920,34.8400
1.1493,0.0230,-0.0890,1.1910,-2.3970,14.2900,-30.1530,34.9800
1.1613,0.0420,-0.1010,1.2030,-2.4730,13.6950,-30.3050,34.8800
1.1684,0.0470,-0.1090,1.1980,-2.9010,15.5570,-30.3970,34.8400
1.1804,0.0490,-0.1030,1.2030,-2.8550,16.4890,-29.9850,34.9800
1.1873,0.0380,-0.1040,1.1880,-4.7180,16.9770,-29.3440,35.0200
1.1992,0.0410,-0.1050,1.1900,-5.8320,18.1370,-29.0230,34.9300
1.2115,0.0350,-0.1080,1.1930,-5.6180,18.2750,-29.3280,34.8800
1.2184,0.0220,-0.1220,1.1910,-6.4890,18.5650,-29.2820,34.8400
1.2307,-0.0030,-0.1460,1.1740,-5.5110,18.3210,-30.4120,34.9300
1.2376,-0.0150,-0.1510,1.1670,-3.2670,17.4200,-30.3660,34.8800
1.2496,-0.0220,-0.1550,1.1470,-1.6340,15.7250,-29.9240,34.9300
1.2617,-0.0230,-0.1540,1.1530,-0.4120,13.5880,-29.3740,34.9300
1.2684,-0.0090,-0.1430,1.1550,0.7940,10.7330,-30.7940,34.9800
1.2805,0.0210,-0.1120,1.1670,0.2140,9.6790,-30.5950,35.0200
1.2874,0.0320,-0.1300,1.1680,1.5570,9.2670,-30.8400,34.9800
1.2999,0.0640,-0.1130,1.1800,-1.1910,9.6030,-29.2370,34.9800
1.3120,0.0650,-0.0890,1.1910,-1.3440,10.2900,-30.7940,34.9300
1.3193,0.0690,-0.0540,1.2020,-0.4120,12.4580,-30.7940,34.9800
1.3313,0.0650,-0.0800,1.2130,-0.9470,12.9920,-31.4810,34.9800
1.3378,0.0550,-0.1050,1.2210,-0.6410,14.2600,-32.8400,34.9300
1.3503,0.0570,-0.1290,1.2170,-0.1980,14.8850,-31.4200,34.9800
1.3621,0.0500,-0.1300,1.2010,-0.7940,14.5190,-30.9310,34.9800
1.3691,0.0530,-0.1300,1.2060,1.8020,14.5650,-31.7100,34.9800
1.3815,0.0630,-0.1180,1.2000,4.1220,14.2750,-33.3280,34.8800
1.3881,0.0690,-0.0950,1.1940,4.7940,14.0310,-33.4050,34.9300
1.4005,0.0540,-0.0960,1.1880,4.6560,13.1450,-35.3590,35.0200
1.4077,0.0760,-0.0520,1.1970,3.2520,13.6340,-35.5270,34.9800
1.4198,0.0830,-0.0470,1.1980,5.1760,14.5340,-37.5110,34.8400
1.4320,0.0930,-0.0650,1.2040,2.5190,16.1830,-38.7330,34.8800
1.4392,0.0950,-0.0810,1.2110,3.5730,18.2140,-39.2060,34.8800
1.4512,0.0870,-0.0840,1.2040,2.4580,20.5800,-39.5420,35.0200
1.4578,0.0720,-0.0780,1.1920,0.2140,22.6110,-41.2210,34.8800
1.4702,0.0520,-0.0690,1.1910,-1.7710,22.7480,-38.1530,34.8800
1.4774,0.0470,-0.0830,1.1670,-0.8400,23.2520,-39.5570,34.9300
1.4893,0.0530,-0.0930,1.1790,-0.6410,23.4050,-41.3740,34.8800
1.5014,0.0480,-0.0890,1.1590,-0.5190,23.6180,-42.3210,34.9800
1.5085,0.0370,-0.0750,1.1510,-0.3970,22.8240,-43.2060,34.9300
1.5204,0.0390,-0.0800,1.1580,1.0230,22.4430,-43.8470,34.9800
1.5277,0.0380,-0.0770,1.1630,2.0920,22.1070,-44.4120,34.9800
1.5396,0.0430,-0.0840,1.1660,1.6030,21.6950,-42.8700,34.9300
1.5519,0.0380,-0.0830,1.1540,0.0920,22.8090,-41.6340,34.8800
1.5589,0.0360,-0.0770,1.1480,-1.6640,22.5500,-39.3890,34.9300
1.5710,0.0250,-0.0710,1.1290,-1.0530,21.1760,-38.6560,35.0200
1.5776,0.0340,-0.0830,1.1340,-1.7860,19.4200,-39.1300,34.8800
1.5899,0.0370,-0.0850,1.1300,-3.8780,18.2900,-39.2980,34.9300
1.6025,0.0400,-0.0760,1.1420,-5.5570,17.7860,-39.2980,34.9300
1.6089,0.0570,-0.0710,1.1540,-4.1680,18.6260,-38.2750,34.8800
1.6212,0.0500,-0.0970,1.1510,-5.5420,18.3970,-38.8700,35.0200
1.6278,0.0500,-0.1070,1.1580,-4.9770,17.9690,-39.8170,34.8800
1.6404,0.0550,-0.1230,1.1560,-4.1980,17.0080,-39.9240,34.9800
1.6521,0.0570,-0.1180,1.1580,-4.1220,16.4580,-39.7100,34.9300
1.6593,0.0580,-0.1080,1.1740,-4.0150,16.5040,-38.9160,34.8800
1.6714,0.0560,-0.1070,1.1670,-4.8400,16.6260,-38.5800,34.9800
1.6781,0.0650,-0.0960,1.1660,-7.1760,16.8700,-37.6340,35.0200
1.6902,0.0460,-0.0820,1.1590,-7.4810,17.2520,-37.3130,34.9800
1.6975,0.0480,-0.0920,1.1700,-8.0610,17.0080,-38.1830,34.9800
1.7094,0.0480,-0.0940,1.1790,-8.4120,16.7630,-38.9010,34.9300
1.7213,0.0470,-0.0950,1.1760,-7.6950,16.7480,-39.0230,34.8800
1.7282,0.0510,-0.1280,1.1800,-5.7560,15.5570,-40.6870,35.0200
1.7406,0.0600,-0.1310,1.1860,-4.9470,18.3050,-39.7100,34.8800
1.7471,0.0490,-0.1220,1.1900,-4.9010,16.9010,-38.9470,34.9800
1.7596,0.0550,-0.1260,1.1790,-3.8470,16.6870,-38.8850,34.9300
1.7717,0.0450,-0.1360,1.1780,-4.1070,16.4890,-39.6030,34.9300
1.7784,0.0660,-0.1230,1.1920,-4.4580,16.4580,-39.4810,34.9800
1.7909,0.0750,-0.1060,1.2020,-6.1530,17.2060,-38.9310,34.9300
1.7973,0.0800,-0.0960,1.2000,-2.7790,18.5650,-40.5800,34.8800
1.8099,0.0730,-0.0980,1.2100,-1.6640,20.0610,-41.6950,34.9800
1.8216,0.0540,-0.0910,1.1930,-3.2820,20.8850,-41.0530,34.9300
1.8288,0.0360,-0.0990,1.1860,-2.0460,21.0080,-40.8850,34.9800
1.8408,0.0250,-0.1250,1.1840,-2.4580,20.4120,-40.8090,34.9800
1.8479,0.0330,-0.1350,1.1780,-0.9920,19.7560,-39.9240,34.9300
1.8597,0.0380,-0.1490,1.1750,0.4730,19.1150,-39.4960,34.8800
1.8720,0.0430,-0.1450,1.1750,1.0230,18.2600,-39.2210,34.9300
1.8788,0.0430,-0.1210,1.1780,1.1910,18.0460,-38.3360,34.9300
1.8913,0.0520,-0.1120,1.1910,-0.7940,18.0610,-37.5570,34.9800
1.8981,0.0440,-0.1030,1.1970,-1.4350,18.8550,-37.2520,34.9300
1.9101,0.0260,-0.0990,1.1790,-0.1070,19.5270,-36.8550,34.9300
1.9160,0.0240,-0.1040,1.1740,1.0380,18.5040,-37.2670,34.9800
1.9291,0.0320,-0.1260,1.1700,0.5650,17.1150,-38.2440,34.9300
1.9414,0.0490,-0.1150,1.1950,0.6560,16.4730,-38.4580,34.8400
1.9487,0.0610,-0.0980,1.1940,2.3050,16.7020,-39.0380,34.8800
1.9606,0.0660,-0.0940,1.2000,1.5570,17.9080,-37.8320,34.9300
1.9679,0.0500,-0.0940,1.1760,0.7480,18.9160,-36.7630,35.0200
1.9799,0.0350,-0.0900,1.1630,-1.2670,18.1980,-36.8400,34.9800
1.9919,0.0340,-0.0760,1.1470,-1.8780,16.9160,-35.9850,34.9300
1.9991,0.0320,-0.0880,1.1470,-4.5040,15.8320,-36.7330,34.9800
2.0109,0.0370,-0.0800,1.1560,-4.5040,15.4050,-37.1760,34.9800
2.0182,0.0310,-0.1060,1.1580,-4.4120,15.1760,-37.7560,35.0200
2.0298,0.0390,-0.1120,1.1800,-3.5570,15.5730,-37.4810,34.9800
2.0421,0.0380,-0.1260,1.1700,-2.4120,16.3970,-36.6560,34.9800
2.0491,0.0440,-0.1390,1.1630,-2.2290,15.8780,-36.5650,34.9300
2.0612,0.0550,-0.1570,1.1710,-0.6410,14.7330,-36.7480,34.9800
2.0682,0.0680,-0.1420,1.1760,-0.1980,13.8470,-37.1600,34.8800
2.0801,0.0820,-0.1110,1.1590,-1.9690,14.0310,-34.7630,34.9300
2.0860,0.0880,-0.0980,1.1620,-3.1760,14.6410,-33.9390,34.9800
2.0993,0.0960,-0.0600,1.1630,-2.6260,15.3130,-33.1300,34.9300
2.1116,0.1060,-0.0470,1.1560,0.5040,16.0000,-32.6110,34.8800
2.1184,0.1170,-0.0670,1.1610,-0.1980,17.2520,-31.4500,34.8800
2.1304,0.1010,-0.0560,1.1620,-1.6490,18.0000,-33.5270,34.8400
2.1372,0.0940,-0.0510,1.1580,-2.8090,19.4050,-34.8090,34.9300
2.1494,0.0910,-0.0660,1.1610,-3.5730,20.6560,-36.8090,34.9800
2.1615,0.0710,-0.0990,1.1570,-3.9690,21.1150,-38.9310,35.0200
2.1683,0.0600,-0.1190,1.1620,-4.7630,20.9470,-39.8470,34.8800
2.1807,0.0520,-0.1450,1.1570,-4.7790,20.4730,-40.6260,34.9800
2.1877,0.0430,-0.1490,1.1580,-6.9310,19.5570,-40.2140,34.9300
2.1998,0.0550,-0.1550,1.1710,-7.2210,19.3130,-39.1910,34.9800
2.2116,0.0660,-0.1490,1.1700,-7.4500,19.5110,-38.1070,34.9800
2.2186,0.0490,-0.1320,1.1640,-7.6490,19.0230,-37.0990,34.9300
2.2307,0.0310,-0.1290,1.1560,-5.9540,18.7790,-37.2370,34.8800
2.2379,0.0260,-0.1340,1.1580,-5.1150,17.4960,-38.0310,34.9300
2.2498,0.0190,-0.1270,1.1540,-4.8550,16.3660,-36.5500,34.9300
2.2618,0.0240,-0.1260,1.1520,-4.8400,15.8470,-35.8170,34.8800
2.2688,0.0260,-0.1390,1.1510,-4.9310,15.6180,-35.8630,35.0200
2.2810,0.0240,-0.1410,1.1600,-4.1530,15.0230,-35.4960,34.9300
2.2878,0.0310,-0.1470,1.1590,-3.6640,14.4120,-35.2820,34.8800
2.3001,0.0390,-0.1400,1.1790,-0.7940,14.7630,-32.4730,35.1200
2.3121,0.0340,-0.1440,1.1720,1.3280,14.9310,-31.9850,34.9800
2.3190,0.0240,-0.1350,1.1720,1.9540,14.5650,-31.9390,34.8800
2.3313,0.0310,-0.1400,1.1690,0.8700,13.4200,-31.4660,34.9300
2.3381,0.0260,-0.1450,1.1600,-0.5190,12.8240,-31.1450,34.9800
2.3504,0.0200,-0.1360,1.1550,-3.0380,11.6640,-29.6030,34.9800
2.3575,0.0300,-0.1280,1.1650,-3.8780,11.4960,-30.1830,34.9300
2.3694,0.0340,-0.1280,1.1720,-2.8550,11.1600,-31.8020,34.9800
2.3814,0.0420,-0.1280,1.1650,-3.4810,10.2140,-32.5800,34.9800
2.3884,0.0350,-0.1370,1.1570,-2.8550,9.6950,-32.1070,34.9300
2.4007,0.0360,-0.1410,1.1500,-1.1450,7.6030,-31.7560,34.8800
2.4076,0.0520,-0.1360,1.1610,0.6260,6.5190,-31.2820,34.9300
2.4199,0.0720,-0.1250,1.1760,-2.0610,7.4050,-29.8170,34.8800
2.4322,0.0990,-0.1080,1.1890,-3.2060,7.7560,-29.2820,34.9800
2.4391,0.1010,-0.0810,1.1820,-0.5500,8.6720,-30.6110,34.9300
2.4512,0.0970,-0.0910,1.1700,-0.5650,8.2600,-31.5880,34.9300
2.4584,0.1000,-0.0760,1.1700,-0.7180,8.5500,-31.7860,34.8800
2.4704,0.1100,-0.0810,1.1790,-0.8090,8.7790,-32.2140,35.0200
2.4777,0.1290,-0.0750,1.1980,-2.1370,9.9690,-33.5570,34.9800
2.4898,0.1440,-0.0830,1.2020,-0.7480,12.6720,-34.5190,35.0700
2.5016,0.1250,-0.1120,1.2150,-1.5570,14.3970,-34.6110,34.9300
2.5091,0.1110,-0.1240,1.2060,-1.7400,14.7480,-33.7710,34.8800
2.5206,0.1030,-0.1430,1.1880,-0.3050,14.9470,-34.3510,34.8800
2.5276,0.1080,-0.1570,1.2010,0.7180,14.9920,-34.5950,34.9300
2.5402,0.1210,-0.1520,1.2130,0.3360,15.6640,-33.6180,34.8800
2.5526,0.1080,-0.1340,1.2010,1.0230,16.6560,-32.0000,34.9300
2.5592,0.1020,-0.1240,1.1910,0.0460,16.8090,-32.3660,34.9300
2.5712,0.0960,-0.0950,1.1750,-0.5040,16.6720,-31.8630,34.8800
2.5782,0.0990,-0.0910,1.1740,3.0380,22.6560,-33.2210,34.8400
2.5904,0.0970,-0.1060,1.1640,0.4730,16.8090,-33.6790,34.8400
2.5972,0.0880,-0.0820,1.1720,3.5110,13.6340,-33.6640,34.8800
2.6096,0.1050,-0.1060,1.1670,4.5950,12.9160,-34.5800,35.0200
2.6216,0.1140,-0.1040,1.1890,2.2750,12.4270,-33.4200,34.9300
2.6286,0.1220,-0.1030,1.1730,-0.8850,13.0690,-32.6260,34.9800
2.6410,0.1210,-0.0850,1.1660,1.1300,13.4200,-32.1530,35.0200
2.6475,0.1180,-0.1060,1.1680,-0.5040,13.2820,-31.3890,34.9800
2.6600,0.1130,-0.0940,1.1490,-1.4050,12.3970,-30.5950,34.8800
2.6721,0.1200,-0.0730,1.1490,-2.2440,11.9850,-34.1070,34.9300
2.6789,0.1590,-0.0620,1.1740,-0.5340,12.5340,-35.7710,34.8800
2.6913,0.1560,-0.0700,1.2000,-1.7250,15.3130,-36.8850,34.8800
2.6980,0.1480,-0.0490,1.1730,-2.8700,16.7630,-34.7940,35.0200
2.7105,0.1220,-0.0540,1.1560,-3.5570,16.9920,-36.9470,34.8800
2.7221,0.1220,-0.0730,1.1730,-3.9240,16.5340,-36.9770,34.9800
2.7291,0.1190,-0.1150,1.1740,-1.7100,16.3510,-37.6180,34.9300
2.7412,0.1190,-0.1310,1.1670,-1.5570,16.0610,-36.5040,34.9800
2.7481,0.1220,-0.1410,1.1630,-1.0840,15.6180,-36.2290,34.9800
2.7603,0.1270,-0.1300,1.1740,-1.4500,15.4500,-35.3440,35.0200
2.7676,0.1280,-0.1350,1.1590,-1.6790,15.0080,-34.9010,34.8800
2.7790,0.1280,-0.1200,1.1680,-4.6560,14.6260,-34.3360,34.9300
2.7916,0.1130,-0.1010,1.1670,-1.1450,13.5730,-35.0840,34.9800
2.7984,0.1500,-0.1130,1.1620,-1.1450,14.4120,-36.1070,34.8800
2.8105,0.1690,-0.1220,1.1760,-2.2140,15.7860,-37.2210,35.0200
2.8175,0.1730,-0.1120,1.1690,-0.8090,17.1150,-37.4200,34.9300
2.8293,0.1730,-0.1070,1.1630,-1.4500,17.5110,-37.1760,34.9800
2.8418,0.1640,-0.1030,1.1720,-0.1220,16.6110,-37.6340,34.9300
2.8483,0.1580,-0.0980,1.1560,-0.4730,17.9850,-38.5190,34.8800
2.8609,0.1680,-0.1130,1.1810,-0.4890,17.6790,-38.4580,34.8800
2.8674,0.1810,-0.1250,1.1650,-2.2140,18.0000,-37.3440,34.9300
2.8795,0.1900,-0.1340,1.1640,-0.9620,17.5570,-38.5650,34.8800
2.8917,0.2020,-0.1380,1.1780,-0.1370,17.2520,-38.4890,34.9800
2.8988,0.2100,-0.1460,1.1780,-1.1450,17.6950,-38.8240,35.0200
2.9108,0.2040,-0.1080,1.1810,-1.8470,18.4730,-38.4120,34.8800
2.9178,0.2060,-0.0880,1.1570,-1.8470,18.9310,-38.3660,34.8800
2.9297,0.2190,-0.1000,1.1670,-1.1600,19.4500,-40.2900,34.9300
2.9417,0.2370,-0.1000,1.1770,-2.0310,20.6720,-40.7790,34.9800
2.9484,0.2440,-0.0940,1.1680,-2.7180,21.9240,-41.4810,34.8800
2.9607,0.2440,-0.0940,1.1740,-3.8930,22.4270,-43.1760,34.9300
2.9681,0.2260,-0.0900,1.1710,-5.2670,23.3590,-44.0460,34.8800
2.9801,0.2140,-0.0760,1.1620,-4.7020,23.9240,-45.3590,34.9300
2.9921,0.2130,-0.1040,1.1660,-5.0840,24.8700,-46.4890,34.9300
2.9990,0.2140,-0.1200,1.1680,-5.0690,25.9080,-46.5500,34.9800
3.0111,0.2110,-0.1390,1.1640,-4.9620,25.7710,-46.1830,34.9300
3.0181,0.2020,-0.1320,1.1610,-6.2290,25.7710,-46.4580,34.9300
3.0303,0.1950,-0.1300,1.1680,-4.2440,26.3970,-47.6790,34.8800
3.0421,0.1890,-0.1250,1.1550,-3.5570,24.4120,-48.6110,34.9300
3.0494,0.2010,-0.1400,1.1610,-2.7630,24.9920,-49.9690,34.9800
3.0610,0.2120,-0.1280,1.1640,-2.1980,25.4350,-49.6790,34.8800
3.0684,0.2280,-0.1460,1.1590,-3.6640,25.5880,-50.9010,34.9300
3.0803,0.2290,-0.1210,1.1810,-3.3890,26.4270,-51.4050,34.8800
3.0871,0.2340,-0.1130,1.1740,-2.7180,26.1680,-52.0460,34.9800
3.0994,0.2420,-0.1150,1.1840,-5.6180,27.3590,-52.4270,34.9300
3.1113,0.2410,-0.1180,1.1910,-7.3740,28.6410,-52.8550,34.9800
3.1184,0.2420,-0.1280,1.1900,-6.7630,29.4350,-53.5110,34.8800
3.1302,0.2320,-0.1320,1.1940,-5.4660,29.6640,-55.8630,34.9300
3.1371,0.2220,-0.1330,1.1870,-4.5650,30.8400,-58.1370,34.8800
3.1496,0.2250,-0.1380,1.1690,-4.1530,30.6720,-59.0840,34.9300
3.1617,0.2340,-0.1470,1.1840,-4.9010,32.1680,-58.4120,34.9800
3.1685,0.2160,-0.1410,1.1650,-4.1370,32.8550,-58.6720,34.9800
3.1806,0.2020,-0.1350,1.1610,-5.0990,30.9770,-58.8550,34.8400
3.1877,0.2050,-0.1340,1.1630,-7.7560,29.8320,-59.6180,35.0200
3.1998,0.2050,-0.1140,1.1750,-7.8780,30.1680,-60.4120,34.8800
3.2118,0.2030,-0.1130,1.1760,-7.3590,30.5040,-61.1300,34.9300
3.2188,0.1910,-0.1230,1.1790,-7.0990,31.2670,-62.3820,34.9800
3.2307,0.1800,-0.1410,1.1660,-5.2670,30.6110,-62.1220,34.8800
3.2379,0.1750,-0.1700,1.1580,-4.5650,29.2370,-64.3660,34.9300
3.2499,0.1850,-0.1570,1.1560,-4.3360,28.3510,-63.7100,34.8800
3.2618,0.2090,-0.1680,1.1640,-4.3510,26.6410,-63.5730,34.8800
3.2686,0.1980,-0.1610,1.1620,-6.9160,25.7400,-63.6950,35.0200
3.2809,0.1970,-0.1390,1.1810,-12.2900,25.7100,-64.1980,34.8800
3.2877,0.1830,-0.0670,1.1850,-10.3210,27.1300,-65.8320,34.9800
3.2996,0.1820,-0.0660,1.1870,-6.1530,28.5190,-69.6950,34.9300
3.3120,0.1730,-0.0610,1.1780,-9.0840,29.5730,-70.9310,34.9800
3.3187,0.1690,-0.0970,1.1740,-10.0920,31.1450,-70.2290,34.8800
3.3310,0.1600,-0.1710,1.1660,-9.1300,31.4810,-71.4200,34.9300
3.3377,0.1660,-0.1880,1.1640,-10.9010,34.6110,-68.4430,34.9800
3.3500,0.1410,-0.1980,1.1560,-11.2370,33.6180,-67.0990,34.8800
3.3621,0.0850,-0.1980,1.1130,-8.4580,31.6490,-68.0460,34.9300
3.3686,0.1110,-0.1630,1.1490,-8.2140,28.1680,-70.4120,34.7900
3.3808,0.1250,-0.1530,1.1550,-4.1530,27.5270,-70.2290,34.9300
3.3876,0.1460,-0.1740,1.1690,-3.2060,27.8020,-70.5040,34.9300
3.4000,0.1490,-0.1580,1.1640,-0.0460,28.7630,-72.1680,34.8800
3.4118,0.1500,-0.1510,1.1490,-1.0530,28.7330,-72.8240,34.9300
3.4189,0.1290,-0.1250,1.1610,-1.7710,28.6870,-74.1070,35.0200
3.4309,0.1240,-0.1260,1.1550,-3.2520,28.6110,-73.8930,34.9800
3.4378,0.1050,-0.0940,1.1780,-5.0080,28.8850,-74.5040,34.9300
3.4502,0.1140,-0.0900,1.1930,-6.5650,29.8780,-73.7710,34.9300
3.4621,0.0990,-0.0870,1.1740,-5.4500,30.3360,-74.8400,34.9800
3.4689,0.0940,-0.1280,1.1590,-3.2060,30.7330,-76.0920,34.9300
3.4812,0.1090,-0.1670,1.1840,-2.8400,29.8320,-78.0610,34.8800
3.4878,0.1140,-0.1720,1.1890,-3.2980,30.3970,-76.9010,34.9800
3.5003,0.0910,-0.1670,1.1940,-5.9080,32.4580,-74.9160,34.9300
3.5056,0.0730,-0.1310,1.1870,-6.7180,33.6490,-75.4660,34.8800
3.5193,0.0660,-0.0910,1.1830,-2.3360,33.3890,-77.2520,34.8800
3.5315,0.0610,-0.1140,1.1850,-2.8240,32.4120,-78.4120,34.9300
3.5381,0.0750,-0.1230,1.1800,-4.9770,32.8400,-77.5730,34.8800
3.5506,0.0700,-0.1250,1.1790,-5.3890,33.3280,-77.1150,34.8800
3.5576,0.0550,-0.1670,1.1500,-5.1910,34.0920,-76.7480,34.9300
3.5697,0.0390,-0.2090,1.1360,-7.0990,32.7790,-74.6110,34.9800
3.5814,0.0160,-0.2230,1.1250,-7.9240,29.8630,-73.5270,34.9300
3.5885,0.0260,-0.1890,1.1390,-3.7560,27.3890,-74.7020,34.9800
3.6004,0.0420,-0.1560,1.1430,-0.5040,25.8020,-76.3510,34.8800
3.6078,0.0490,-0.1380,1.1550,-1.5880,25.5570,-76.3210,34.9300
3.6193,0.0410,-0.1180,1.1720,1.6490,24.3360,-77.6790,35.0200
3.6317,0.0420,-0.1370,1.1670,2.9470,24.1830,-77.5270,34.8800
3.6386,0.0540,-0.1440,1.1680,3.3130,23.8170,-76.2900,34.8400
3.6511,0.0410,-0.1630,1.1530,3.0840,23.3280,-75.4350,34.9800
3.6581,0.0360,-0.1620,1.1340,1.3740,21.6340,-75.0230,34.9800
3.6704,0.0500,-0.1450,1.1420,-0.7180,21.5730,-73.9540,34.9300
3.6821,0.0350,-0.1140,1.1550,-4.0150,20.4270,-72.5650,34.9800
3.6894,0.0260,-0.0940,1.1550,-2.7330,20.6870,-70.9160,34.8800
3.7012,0.0470,-0.0730,1.1660,-5.8170,20.5800,-70.0920,34.9300
3.7083,0.0490,-0.0830,1.1600,-9.8930,22.5800,-71.9850,34.8800
3.7200,0.0450,-0.1070,1.1940,-7.1760,24.5650,-72.5040,34.9800
3.7274,0.0370,-0.1660,1.1540,-2.9770,24.7180,-73.5570,34.8400
3.7392,0.0240,-0.2020,1.1540,-5.2980,24.3050,-72.4890,34.8800
3.7513,0.0150,-0.1830,1.1410,-5.6340,22.8550,-71.5110,34.9300
3.7582,-0.0080,-0.1710,1.1390,-5.7250,21.2060,-69.6030,34.9300
3.7702,0.0010,-0.1530,1.1610,-3.3440,21.0530,-68.3660,34.8800
3.7770,0.0090,-0.1290,1.1640,-4.5500,20.3360,-66.7940,34.9300
3.7891,0.0140,-0.1210,1.1790,-5.8470,20.8240,-66.3820,34.8400
3.8012,0.0140,-0.1350,1.1670,-6.7940,21.2820,-66.0760,34.8800
3.8081,0.0080,-0.1650,1.1540,-7.4660,21.9240,-68.9160,34.9300
3.8201,0.0060,-0.1810,1.1800,-4.7330,21.0990,-70.6560,34.9300
3.8270,-0.0050,-0.1530,1.1860,-0.6110,21.7710,-70.9310,34.9800
3.8391,0.0040,-0.1370,1.1750,-0.4270,22.9620,-72.5190,34.9300
3.8514,-0.0090,-0.1460,1.1830,-2.9310,23.6950,-71.4200,34.9800
3.8581,-0.0370,-0.1400,1.1630,-1.7560,22.9770,-70.6110,34.9800
3.8702,-0.0380,-0.1490,1.1530,1.1150,21.0990,-70.4730,34.9300
3.8770,-0.0240,-0.1800,1.1700,1.7560,19.7710,-70.1220,34.7900
3.8893,-0.0180,-0.1710,1.1570,1.3740,19.9850,-67.8780,34.9800
3.9015,-0.0210,-0.1780,1.1460,0.9920,19.6340,-64.4120,34.8800
3.9082,-0.0460,-0.1490,1.1580,-1.5730,21.9690,-59.3590,34.7900
3.9202,-0.0380,-0.1550,1.1360,-4.5340,19.5880,-57.9540,34.8400
3.9275,-0.0510,-0.1340,1.1230,-3.4350,16.5500,-57.7250,34.9300
3.9395,-0.0390,-0.1340,1.1380,-5.2520,15.0080,-58.8400,35.0700
3.9514,-0.0190,-0.0880,1.1700,-1.0080,14.9620,-60.0000,34.8400
3.9583,-0.0080,-0.0630,1.1730,-2.6560,15.8930,-61.1760,34.8800
3.9704,0.0080,-0.0860,1.1820,-4.3510,16.3660,-61.2670,34.8800
3.9774,0.0150,-0.1100,1.2020,-4.2750,18.5800,-61.9080,35.0200
3.9892,0.0080,-0.1320,1.1960,-2.8240,20.0310,-62.1370,34.8800
