Time,AX,AY,AZ,GX,GY,GZ,T
0.0000,0.1470,-0.0720,1.1770,0.1530,19.2210,-41.2210,35.0200
0.0004,0.1520,-0.0640,1.1600,-1.5110,19.6180,-40.9770,35.0700
0.0007,0.1330,-0.0500,1.1580,-1.4200,19.6490,-42.2140,34.9800
0.0011,0.1320,-0.0330,1.1680,-1.1450,19.7860,-43.3890,35.0200
0.0015,0.1470,-0.0430,1.1760,-0.9920,20.2140,-44.0150,34.9800
0.0018,0.1610,-0.0590,1.1750,-0.9470,21.0840,-44.0920,35.0700
0.0021,0.1540,-0.0850,1.1850,0.6110,22.0610,-44.2600,35.0200
0.0025,0.1540,-0.1000,1.1890,0.2140,21.7400,-44.1370,35.0700
0.0031,0.1480,-0.0970,1.1770,-1.4960,20.7480,-43.6490,35.0700
0.0034,0.1420,-0.0930,1.1720,-1.5880,20.2290,-43.7860,35.0200
0.0038,0.1530,-0.0930,1.1700,0.2750,19.9080,-44.9010,34.9800
0.0042,0.1610,-0.0960,1.1740,-0.6720,19.7400,-45.6180,35.0700
0.0047,0.1670,-0.0920,1.1720,0.5340,19.7860,-46.5650,35.0200
0.0051,0.1690,-0.1080,1.1670,1.3280,20.3510,-46.8400,35.0700
0.0054,0.1770,-0.1100,1.1620,2.1220,20.8850,-46.7480,34.9800
0.0058,0.1680,-0.0990,1.1560,1.8320,20.4580,-47.4050,35.0200
0.0062,0.1690,-0.0830,1.1560,2.4430,20.1680,-48.8400,34.9800
0.0066,0.1780,-0.0560,1.1540,1.0530,21.0530,-47.0990,34.9800
0.0070,0.1810,-0.0570,1.1620,-0.8700,22.3510,-46.9010,35.0200
0.0073,0.1790,-0.0600,1.1370,-0.4580,22.3050,-48.4890,34.9800
0.0077,0.1810,-0.0640,1.1330,-2.0310,21.8470,-49.5730,35.0700
0.0080,0.1840,-0.0760,1.1370,-3.1760,21.9080,-49.5880,34.9800
0.0084,0.2100,-0.0900,1.1670,-3.9240,22.2140,-49.9390,34.9800
0.0088,0.2090,-0.0730,1.1640,-2.7330,24.1220,-50.1370,34.9300
0.0091,0.2030,-0.0650,1.1580,-2.1680,24.6110,-51.2980,35.0200
0.0095,0.1940,-0.0540,1.1420,-0.4890,25.5110,-52.2290,34.9800
0.0099,0.1800,-0.0640,1.1360,-3.7710,25.3130,-52.6410,35.0200
0.0102,0.1780,-0.0680,1.1500,-1.9080,24.5800,-53.9850,34.9800
0.0105,0.1890,-0.0850,1.1450,-2.7020,23.9850,-55.0380,34.9800
0.0109,0.2000,-0.1010,1.1660,-4.7790,23.3440,-54.1680,35.0200
0.0118,0.2080,-0.1050,1.1920,-4.7480,25.3440,-53.6340,34.9300
0.0124,0.2080,-0.1000,1.1910,-2.9310,25.8020,-52.9160,34.9800
0.0128,0.2060,-0.0970,1.1910,-3.0990,24.7480,-54.0610,35.0200
0.0132,0.1930,-0.0920,1.1880,-2.8090,26.3050,-55.2670,34.9800
0.0139,0.1980,-0.1000,1.1890,-0.6410,25.7860,-57.3280,35.0700
0.0144,0.1960,-0.1250,1.1780,-2.5650,27.4500,-56.9310,35.0200
0.0149,0.1890,-0.1360,1.1740,0.0460,25.8930,-58.6110,35.0200
0.0154,0.1810,-0.0990,1.1690,-0.4580,26.5800,-57.4500,35.0700
0.0158,0.1670,-0.0870,1.1830,1.4660,23.5880,-59.2980,35.0200
0.0161,0.1810,-0.0710,1.1680,-0.7480,23.8320,-59.0530,35.0700
0.0164,0.1910,-0.0530,1.1690,-2.5340,26.1370,-59.2820,34.9800
0.0168,0.1920,-0.0590,1.2000,-0.0760,25.0230,-61.4960,35.0200
0.0171,0.1840,-0.0720,1.1880,2.0000,26.0920,-63.8780,34.9800
0.0174,0.1730,-0.1210,1.1650,2.1070,24.0000,-65.0080,35.0700
0.0178,0.1530,-0.1490,1.1620,-3.4050,26.0610,-63.5420,34.9300
0.0183,0.1390,-0.1070,1.1730,-4.7630,25.2370,-62.2600,35.0700
0.0187,0.1490,-0.0500,1.1710,-5.8930,21.0840,-62.4270,35.0700
0.0191,0.1750,-0.0170,1.1830,-6.2900,23.1150,-63.7710,34.9300
0.0195,0.2010,-0.0150,1.2090,-4.9920,24.0610,-64.4580,35.0700
0.0202,0.2090,-0.0300,1.2200,-7.7560,28.9010,-68.4890,35.0700
0.0206,0.1800,-0.0350,1.2280,-7.9690,31.3130,-69.9240,35.0200
0.0209,0.1470,-0.0580,1.2310,-7.7400,30.9160,-69.0530,35.0700
0.0212,0.1250,-0.0840,1.2360,-7.7710,30.8240,-67.9390,34.9800
0.0216,0.1090,-0.0970,1.2180,-9.3440,30.7180,-65.7860,34.9300
0.0218,0.0960,-0.1160,1.2010,-7.5880,29.9540,-65.5570,34.9800
0.0221,0.0940,-0.1440,1.1690,-4.5950,27.8630,-64.9010,34.8800
0.0224,0.0930,-0.1650,1.1640,-4.3820,24.5650,-62.5950,35.0200
0.0228,0.0800,-0.1560,1.1620,-5.8780,21.4050,-62.6870,35.0700
0.0231,0.0920,-0.1110,1.1430,-1.5730,18.8400,-63.9080,34.9800
0.0234,0.1040,-0.0640,1.1740,0.9310,16.8240,-66.7630,35.0200
0.0236,0.1230,-0.0070,1.1970,-0.2290,18.3660,-66.9310,34.9800
0.0239,0.1290,0.0140,1.1940,2.4890,21.5570,-67.7860,35.0700
0.0242,0.1310,-0.0050,1.1870,-0.4890,23.7400,-67.2060,34.9300
0.0245,0.1120,-0.0320,1.1870,-4.4580,26.1220,-66.1220,34.9800
0.0248,0.0940,-0.0850,1.1580,-5.1450,25.5730,-63.7100,35.0700
0.0251,0.0690,-0.1200,1.1380,-6.1530,24.8090,-59.8320,35.0200
0.0254,0.0600,-0.1480,1.1210,-7.4200,21.4200,-56.8700,34.9800
0.0257,0.0600,-0.1410,1.1250,-8.5190,17.5570,-58.0150,34.9300
0.0259,0.0640,-0.0840,1.1310,-6.8700,13.8320,-59.7400,35.0200
0.0262,0.0770,-0.0400,1.1320,-2.5340,12.1070,-61.2060,34.9800
0.0265,0.0950,-0.0080,1.1340,-1.1910,10.2750,-65.0690,35.0200
0.0268,0.1200,-0.0170,1.1550,-0.7790,12.5800,-67.0530,35.0200
0.0271,0.1360,-0.0130,1.1780,-3.1150,16.0610,-64.6870,34.9800
0.0274,0.1220,-0.0300,1.1420,-4.5500,19.4500,-64.5950,34.9300
0.0277,0.1290,-0.0340,1.1500,-9.6950,20.0310,-63.2520,35.0200
0.0283,0.1100,-0.0760,1.1530,-10.3970,20.8550,-60.2140,35.0700
0.0286,0.0960,-0.0790,1.1240,-9.4660,21.2210,-58.9770,35.0200
0.0288,0.0870,-0.0840,1.1140,-13.0690,20.1070,-56.9620,35.0200
0.0291,0.0650,-0.0850,1.0910,-13.8930,15.9690,-57.2370,35.0700
0.0293,0.0690,-0.0560,1.0960,-12.3660,14.6260,-58.2750,35.0200
0.0296,0.0520,-0.0130,1.1070,-16.7180,11.6640,-58.3820,35.0200
0.0299,0.0690,0.0150,1.0960,-14.6560,10.2600,-61.0990,34.9800
0.0301,0.0800,0.0120,1.1250,-8.9310,8.4890,-62.7940,35.0200
0.0304,0.0990,-0.0160,1.1520,-8.8400,9.2210,-64.6870,35.0200
0.0306,0.1140,-0.0400,1.1810,-10.4120,10.3210,-67.1600,35.0700
0.0309,0.1250,-0.0350,1.2060,-8.3510,12.4730,-71.2060,35.0200
0.0311,0.1260,-0.0490,1.2210,-4.3510,15.2670,-73.0990,35.0200
0.0314,0.1200,-0.0750,1.2120,-5.8780,17.9540,-71.4350,35.0700
0.0316,0.0930,-0.0680,1.2070,-10.8400,20.1980,-65.6640,35.0200
0.0319,0.0700,-0.1000,1.1880,-6.8700,18.7330,-63.2060,35.0200
0.0321,0.0710,-0.1040,1.1950,-6.2900,19.5110,-61.9850,35.0700
0.0324,0.0680,-0.0990,1.1960,-4.8850,18.0760,-61.6340,34.9300
0.0326,0.0480,-0.0820,1.2050,2.4270,16.8090,-65.9390,34.9300
0.0329,0.0610,-0.0890,1.2190,3.9080,17.7100,-66.6870,35.0700
0.0331,0.0830,-0.0830,1.2360,-1.9540,20.9470,-69.9540,35.0200
0.0334,0.1010,-0.0990,1.2540,-1.2060,24.9470,-72.3360,34.9300
0.0336,0.0750,-0.1160,1.2590,-1.8630,29.5730,-71.2210,35.0700
0.0338,0.0560,-0.1330,1.2330,-2.7940,29.5110,-68.1680,35.0200
0.0341,0.0440,-0.1150,1.2200,-2.3970,29.8320,-65.4050,35.0200
0.0343,0.0230,-0.0920,1.2000,-2.5950,29.7560,-62.1830,34.9800
0.0345,0.0100,-0.1180,1.1850,-2.7020,27.9390,-60.6560,35.0200
0.0347,0.0100,-0.1280,1.1790,-1.7710,25.8780,-61.8170,34.9300
0.0350,0.0090,-0.1450,1.1890,1.9540,24.5190,-61.4660,34.9800
0.0352,0.0190,-0.1460,1.1920,1.8170,23.0380,-59.1150,34.9300
0.0354,0.0120,-0.1330,1.1910,5.3130,22.1980,-60.5650,35.0200
0.0357,0.0190,-0.1260,1.1900,6.6560,21.3890,-59.5420,34.9800
0.0359,0.0220,-0.1110,1.1890,4.0920,20.5340,-54.9470,35.0200
0.0361,0.0210,-0.0860,1.1780,2.1370,19.7710,-54.2600,35.0200
0.0364,0.0340,-0.0630,1.1720,3.4960,18.5800,-53.3740,34.9800
0.0366,0.0450,-0.0460,1.1660,1.6490,19.4050,-52.8240,34.9300
0.0368,0.0580,-0.0460,1.1700,-1.5420,19.2370,-53.4500,34.9300
0.0370,0.0470,-0.0380,1.1690,-3.9080,20.9160,-54.0150,34.9800
0.0373,0.0200,-0.0560,1.1420,-3.5730,19.6180,-54.6410,34.9300
0.0375,0.0270,-0.0840,1.1670,-1.4200,19.4810,-55.8020,34.9800
0.0377,0.0410,-0.0890,1.1910,-4.6410,19.9080,-54.2140,34.9800
0.0379,0.0430,-0.0800,1.1830,-6.5500,20.9770,-53.4810,35.0200
0.0382,0.0320,-0.0830,1.1800,-5.4050,21.9540,-54.2900,34.9800
0.0384,0.0260,-0.1020,1.1790,-5.6180,21.6490,-53.1150,34.8800
0.0386,0.0100,-0.1040,1.1640,-6.0920,19.2520,-52.9310,35.0200
0.0388,0.0170,-0.0920,1.1820,-4.3050,18.4120,-53.5270,34.9800
0.0391,0.0310,-0.0880,1.1830,0.4890,16.4270,-55.6790,34.9800
0.0393,0.0470,-0.1060,1.2130,2.5800,19.0840,-56.5650,35.0200
0.0395,0.0630,-0.1170,1.2100,-1.2980,19.2060,-54.6720,35.0700
0.0397,0.0560,-0.1110,1.1900,-3.4960,21.8320,-52.4890,34.9800
0.0399,0.0540,-0.1090,1.1950,-3.5730,22.8700,-51.1760,35.0200
0.0401,0.0410,-0.1030,1.1720,-1.1910,21.1450,-52.7330,34.9800
0.0403,0.0520,-0.1200,1.1770,1.0080,20.8700,-54.6260,34.9800
0.0405,0.0770,-0.1190,1.2020,2.3970,21.9080,-53.5110,35.0200
0.0407,0.0800,-0.1150,1.1890,0.5950,24.3820,-51.7710,34.9800
0.0409,0.0780,-0.0930,1.1930,-1.5110,26.1830,-50.4120,34.9800
0.0411,0.0520,-0.0740,1.1790,-1.0840,27.8630,-49.8170,34.9300
0.0413,0.0270,-0.0820,1.1330,1.0990,27.2520,-51.6490,34.9800
0.0415,0.0300,-0.0770,1.1320,3.4960,24.9310,-52.7790,35.0200
0.0417,0.0450,-0.0870,1.1510,3.0990,25.3280,-52.0310,34.9300
0.0419,0.0480,-0.0750,1.1580,3.1910,25.6640,-51.3280,35.0700
0.0421,0.0490,-0.0820,1.1470,0.1220,26.7940,-50.0920,35.0200
0.0423,0.0410,-0.0910,1.1520,-0.5190,26.6260,-49.3590,34.8800
0.0425,0.0490,-0.0750,1.1410,-0.4730,26.3660,-49.9080,34.9800
0.0427,0.0550,-0.0520,1.1350,-0.5800,25.3440,-51.4660,35.0200
0.0429,0.0550,-0.0360,1.1390,-0.3050,24.6260,-53.8780,35.0200
0.0431,0.0660,-0.0300,1.1550,-1.5420,25.4350,-54.5500,35.0700
0.0433,0.0710,-0.0290,1.1730,-2.5950,27.2820,-53.2060,35.1200
0.0435,0.0660,-0.0610,1.1610,-4.2290,28.9160,-50.8550,34.9800
0.0437,0.0730,-0.0740,1.1780,-7.2370,29.9390,-49.0080,35.0700
0.0439,0.0600,-0.0700,1.1670,-8.1680,30.3360,-47.6340,35.0200
0.0441,0.0590,-0.0690,1.1580,-8.7020,29.5110,-49.4660,34.9300
0.0443,0.0540,-0.0650,1.1700,-6.9010,28.3210,-51.7400,34.9800
0.0446,0.0570,-0.0770,1.1750,-4.8550,27.0990,-53.4200,35.0200
0.0448,0.0440,-0.0800,1.1720,-7.2210,27.2520,-53.2670,34.9800
0.0450,0.0420,-0.0730,1.1760,-5.4660,26.4730,-52.2600,35.0700
0.0452,0.0380,-0.0940,1.1810,-5.3590,26.6560,-51.7710,35.0200
0.0454,0.0360,-0.0890,1.1740,-7.8930,26.2600,-47.8930,34.9800
0.0456,0.0300,-0.0750,1.1700,-10.0000,24.9310,-47.2820,34.8800
0.0458,0.0210,-0.0730,1.1670,-11.4960,22.5950,-46.8400,35.1200
0.0460,0.0230,-0.0760,1.1590,-11.6180,20.8090,-46.8850,34.9800
0.0462,0.1100,-0.0750,1.1950,-3.1300,23.5270,-47.3740,34.9300
0.0464,0.0920,-0.0870,1.1800,-3.6950,25.9850,-46.9310,34.8800
0.0466,0.0850,-0.0870,1.1730,1.8470,26.9920,-48.4890,34.9800
0.0468,0.0620,-0.1020,1.1530,-2.8240,24.3050,-46.7940,34.9300
0.0470,0.0600,-0.0990,1.1490,-6.9470,21.5570,-46.2900,34.9800
0.0485,0.0480,-0.0960,1.1610,0.0150,21.0990,-47.3440,34.9800
0.0609,0.0640,-0.0990,1.1590,2.4430,20.6410,-49.0080,35.0200
0.0678,0.0870,-0.1090,1.1860,-1.8780,19.8170,-46.0460,34.8800
0.0799,0.0930,-0.1150,1.1970,-4.1680,21.6180,-45.5420,34.9800
0.0868,0.0890,-0.1190,1.1830,-6.5500,22.3820,-44.2600,34.9300
0.0989,0.0590,-0.0880,1.1870,-2.0760,22.3970,-45.3440,34.9800
0.1112,0.0500,-0.0870,1.1700,0.9770,20.4890,-46.6410,34.9800
0.1181,0.0500,-0.1100,1.1740,1.6030,19.3130,-47.5570,35.0200
0.1304,0.0610,-0.1200,1.1760,2.5190,18.8240,-47.3280,34.9800
0.1406,0.0740,-0.1190,1.1770,1.0990,18.8240,-45.3890,34.9300
0.1494,0.0760,-0.1160,1.1730,-0.8700,19.6640,-43.5730,34.9800
0.1616,0.0720,-0.1250,1.1870,0.3970,19.8320,-43.6180,34.9800
0.1688,0.0730,-0.0920,1.1700,-0.6560,20.2290,-42.1680,34.9300
0.1806,0.0750,-0.0700,1.1740,-1.0530,19.7100,-41.7250,34.9300
0.1875,0.0600,-0.0620,1.1540,0.5040,18.5040,-43.4200,34.9800
0.1999,0.0660,-0.0730,1.1740,1.4200,17.4500,-44.2290,34.9300
0.2066,0.0770,-0.0610,1.1740,-1.0530,17.9390,-43.4200,34.9800
0.2190,0.0850,-0.0620,1.1800,-1.8630,19.5110,-42.5340,34.9800
0.2312,0.0780,-0.0570,1.1740,-3.1760,20.4120,-41.9390,34.9300
0.2380,0.0660,-0.0690,1.1600,-3.7400,20.3820,-42.8700,35.0200
0.2504,0.0560,-0.0810,1.1600,-2.2750,19.3280,-43.5270,34.9800
0.2570,0.0730,-0.0950,1.1750,-2.9310,18.8550,-42.0760,35.0200
0.2694,0.0820,-0.1060,1.1840,-2.2290,19.6340,-40.9470,35.0700
0.2813,0.0840,-0.0900,1.1830,-2.2600,20.3510,-41.2520,34.9800
0.2883,0.0800,-0.0830,1.1820,-2.5950,20.6720,-40.5800,34.9300
0.3004,0.0800,-0.0790,1.1770,-2.2750,20.7180,-42.1220,34.9800
0.3075,0.0720,-0.0700,1.1690,-1.0530,20.2900,-42.5800,34.8800
0.3195,0.0690,-0.0680,1.1640,-0.4430,20.1530,-44.1370,35.0200
0.3315,0.0850,-0.0750,1.1640,-0.9620,20.2290,-43.2820,34.9800
0.3385,0.0830,-0.0870,1.1670,-1.3590,21.8630,-42.1070,35.0700
0.3506,0.0840,-0.0940,1.1640,-2.7630,22.7480,-39.8470,35.0200
0.3576,0.0750,-0.0790,1.1460,-5.5570,22.8400,-38.5650,34.9800
0.3696,0.0700,-0.0680,1.1460,-2.7790,21.9690,-41.1300,35.0700
0.3819,0.0680,-0.0720,1.1490,-2.4730,21.8170,-43.7860,35.0200
0.3887,0.0740,-0.0720,1.1790,-3.3440,22.3210,-43.4660,35.0700
0.4009,0.0780,-0.0860,1.1640,-10.9470,22.7180,-43.8630,34.9800
0.4077,0.0580,-0.0790,1.1890,-2.9310,26.0610,-42.0150,35.0200
0.4197,0.0430,-0.0750,1.1470,-4.7630,26.4890,-39.7560,34.9800
0.4318,0.0190,-0.0730,1.1300,-7.4810,23.2210,-38.9010,34.9300
0.4387,0.0190,-0.0790,1.1500,-1.3740,19.8780,-41.7860,35.0200
0.4509,0.0480,-0.0950,1.1400,-6.9770,17.6180,-42.6560,34.9800
0.4578,0.0570,-0.0770,1.1870,-6.3510,19.3280,-42.1980,35.0200
0.4699,0.0530,-0.0720,1.1650,-5.5570,20.5190,-42.1530,35.0200
0.4757,0.0500,-0.0770,1.1730,-10.1070,20.8550,-41.0080,34.9800
0.4887,0.0430,-0.0830,1.1740,-10.1220,20.8550,-40.3820,34.9300
0.5008,0.0250,-0.0930,1.1620,-7.4500,19.3440,-41.4200,34.9300
0.5078,0.0420,-0.0970,1.1690,-9.1300,19.3890,-38.7180,34.9800
0.5203,0.0310,-0.1170,1.1710,-10.1830,19.3590,-37.0840,35.0200
0.5316,-0.0270,-0.1180,1.2250,-6.0000,23.1300,-34.9010,34.9800
0.5384,0.0290,-0.1040,1.1510,-10.3050,18.5800,-33.8930,34.9800
0.5507,0.0520,-0.1130,1.1560,-7.9850,16.6110,-35.9390,35.0200
0.5573,0.0770,-0.1270,1.1700,-6.4430,16.2290,-36.8400,34.9800
0.5697,0.0830,-0.1380,1.1880,-6.2900,16.1830,-37.2210,34.9800
0.5817,0.0890,-0.1450,1.1900,-5.5420,16.4120,-38.0310,34.9300
0.5886,0.1010,-0.1240,1.2030,-4.5950,17.3890,-37.0840,34.8800
0.6008,0.0990,-0.1330,1.2080,-6.3510,19.5420,-35.0840,34.8800
0.6077,0.0920,-0.1190,1.1870,-7.4660,21.3740,-34.2750,34.9300
0.6199,0.0670,-0.1310,1.2030,-4.6560,23.9690,-33.8170,34.9800
0.6267,0.0780,-0.1550,1.1720,-7.0080,22.1680,-33.3280,34.9800
0.6385,0.0630,-0.1530,1.1700,-1.7860,20.9620,-33.1910,34.9300
0.6509,0.0650,-0.1660,1.1510,-0.5340,18.2140,-35.0530,34.9800
0.6576,0.0930,-0.1650,1.1610,-0.8850,18.0460,-33.7710,34.9800
0.6698,0.1030,-0.1290,1.1670,-4.7940,17.6640,-29.3590,35.0200
0.6767,0.1060,-0.0930,1.1700,-7.3280,17.7560,-29.5420,34.9800
0.6888,0.1090,-0.0810,1.1590,-5.7250,17.3440,-30.8850,34.9300
0.7013,0.1150,-0.0820,1.1670,-0.8700,17.9850,-33.3130,34.9800
0.7080,0.1260,-0.0740,1.1700,-2.4730,18.3360,-31.3890,34.9800
0.7203,0.1290,-0.0890,1.1630,-4.8400,18.2750,-30.2900,35.0200
0.7269,0.1230,-0.0780,1.1800,-5.5110,18.6110,-31.2060,34.9300
0.7392,0.1300,-0.0900,1.1730,-5.3440,19.3280,-31.5880,35.0700
0.7513,0.1350,-0.0890,1.2020,-10.7330,21.8470,-30.1530,35.0200
0.7580,0.1280,-0.1200,1.1900,-9.2670,24.4890,-31.2210,34.9800
0.7703,0.0970,-0.0790,1.1740,-5.4350,25.6340,-34.7180,34.9800
0.7775,0.0730,-0.1460,1.1810,-4.6110,24.5500,-32.5190,35.1200
0.7892,0.0710,-0.1310,1.1540,-4.5800,22.8700,-35.6950,35.0200
0.8016,0.0740,-0.1130,1.1830,-2.9920,21.7100,-35.1600,34.9800
0.8085,0.0930,-0.1240,1.1930,-3.4350,22.0610,-35.9850,34.9300
0.8206,0.1050,-0.1150,1.2110,-5.5730,24.0760,-34.5650,34.9800
0.8276,0.1010,-0.1240,1.1930,-5.5570,25.3440,-34.0310,35.0700
0.8397,0.1010,-0.1230,1.1880,-4.2900,25.9850,-34.9010,35.0200
0.8516,0.1000,-0.1300,1.1780,-2.6870,25.6490,-35.0840,35.0200
0.8589,0.0980,-0.1300,1.1920,-0.7790,24.7480,-37.2980,35.0700
0.8705,0.1000,-0.1270,1.1930,0.0000,25.2060,-37.0690,35.0200
0.8780,0.0890,-0.1250,1.1810,-2.5500,25.8470,-35.4660,35.0700
0.8899,0.0800,-0.1050,1.1700,-2.4430,25.6180,-35.1450,34.9800
0.9019,0.0710,-0.1090,1.1590,-0.7480,24.5500,-35.2060,34.9300
0.9088,0.0670,-0.1320,1.1670,-1.1760,23.4810,-35.7250,34.9800
0.9207,0.0790,-0.1220,1.1770,0.1070,22.8850,-36.3510,34.9800
0.9278,0.0780,-0.1400,1.1740,-0.3510,22.8090,-35.6180,34.9300
0.9403,0.0770,-0.1370,1.1690,-3.7400,22.7480,-33.5110,34.9800
0.9467,0.0730,-0.1140,1.1600,-3.0990,22.9160,-32.1220,34.9800
0.9592,0.0730,-0.1070,1.1590,-2.2140,22.2290,-34.4430,35.0200
0.9711,0.0750,-0.1100,1.1710,-0.5190,21.0840,-36.0150,35.0700
0.9787,0.0840,-0.0940,1.1790,-0.1830,20.7630,-36.6260,34.9800
0.9901,0.1000,-0.1060,1.1860,-0.7330,22.0760,-35.4200,34.9300
0.9970,0.1030,-0.1050,1.1900,-5.0230,22.7940,-33.9540,34.9800
1.0091,0.0830,-0.1100,1.1830,-4.4890,23.4960,-35.2060,34.9800
1.0215,0.0700,-0.1060,1.1740,-2.0460,22.5340,-35.6490,35.0200
1.0282,0.0710,-0.1250,1.1730,-3.4200,21.3740,-35.2060,34.9800
1.0401,0.0660,-0.1350,1.1880,-4.0760,21.4960,-33.2670,35.0700
1.0469,0.0560,-0.1310,1.1770,-3.7560,21.5270,-33.0230,34.9300
1.0591,0.0540,-0.1270,1.1780,-3.1450,20.8850,-34.3510,34.9800
1.0715,0.0520,-0.1230,1.1610,-0.7940,19.9540,-35.7860,34.9300
1.0779,0.0510,-0.1480,1.1580,0.0920,18.7020,-37.1300,34.9300
1.0905,0.0530,-0.1460,1.1800,0.0000,18.8850,-36.1530,35.0700
1.0973,0.0600,-0.1260,1.1830,-1.8170,19.2060,-32.4120,34.9300
1.1095,0.0530,-0.1240,1.1480,-3.7710,19.3740,-30.3360,35.0200
1.1217,0.0330,-0.1010,1.1420,-2.8400,17.2980,-32.6560,34.8800
1.1283,0.0580,-0.1020,1.1540,-2.3210,15.4200,-33.2370,34.9300
1.1408,0.0850,-0.0990,1.1570,-1.4350,14.5800,-33.8320,34.9300
1.1474,0.0990,-0.1010,1.1660,-3.1300,15.1300,-33.7400,35.0700
1.1597,0.1150,-0.0950,1.1820,-2.7180,17.2210,-33.2060,34.9300
1.1653,0.1130,-0.1000,1.1800,-4.9770,18.2900,-32.3210,35.0200
1.1787,0.1030,-0.0900,1.1800,-3.4960,18.5650,-32.9010,34.9800
1.1910,0.0950,-0.0890,1.1690,-3.0380,18.6410,-35.8020,35.0200
1.1976,0.0850,-0.0920,1.1770,-0.6560,18.0310,-38.3660,35.0200
1.2099,0.0840,-0.1370,1.1920,0.7790,18.3820,-39.7560,34.9800
1.2168,0.0830,-0.1470,1.1990,-2.1070,18.8090,-38.1220,35.0200
1.2291,0.0770,-0.1520,1.1930,-4.0920,20.0920,-34.8090,35.0200
1.2413,0.0770,-0.1570,1.1840,-4.4270,20.3970,-34.6560,34.8800
1.2480,0.0600,-0.1350,1.1830,-1.1760,19.8170,-35.9390,35.0200
1.2603,0.0530,-0.1310,1.1800,1.2520,18.8550,-36.5650,34.9300
1.2674,0.0640,-0.1200,1.1860,0.5500,17.3130,-36.4120,34.9800
1.2792,0.0860,-0.1090,1.1780,0.4430,17.8470,-35.8020,34.9300
1.2916,0.1000,-0.0980,1.1900,0.3510,19.0990,-35.4960,34.9800
1.2986,0.0960,-0.0970,1.1830,-0.5800,19.7560,-36.9010,34.9800
1.3108,0.0810,-0.1250,1.1670,4.1980,19.5110,-41.0380,35.0200
1.3176,0.0950,-0.1180,1.1740,1.5570,20.7940,-38.3360,34.9800
1.3298,0.0830,-0.1150,1.1830,-1.4810,21.7710,-35.8170,34.9800
1.3370,0.0660,-0.1040,1.1670,-3.4810,23.0230,-34.1070,35.0200
1.3490,0.0530,-0.0910,1.1570,-1.3440,22.6560,-35.2670,34.9800
1.3611,0.0470,-0.1160,1.1540,0.9770,21.2210,-37.5570,35.0700
1.3679,0.0420,-0.1230,1.1560,-0.1370,20.3660,-37.4960,35.0200
1.3801,0.0380,-0.1350,1.1480,0.6410,19.6640,-37.8630,34.9800
1.3871,0.0500,-0.1470,1.1370,-0.2140,19.6340,-36.4890,34.8800
1.3993,0.0510,-0.1420,1.1490,-1.4200,19.4810,-34.4430,35.0200
1.4113,0.0490,-0.1110,1.1340,-3.2820,18.2600,-34.3970,34.9800
1.4186,0.0600,-0.0780,1.1520,-1.8630,17.7710,-35.4050,35.0700
1.4302,0.0640,-0.0760,1.1480,-0.4120,17.3740,-36.9770,34.9300
1.4373,0.0700,-0.0920,1.1580,-2.3660,18.8090,-37.1300,34.9800
1.4492,0.0700,-0.1190,1.1460,-2.0000,19.2820,-35.8780,34.9800
1.4616,0.0570,-0.1300,1.1470,-2.6870,19.6340,-35.2210,35.0200
1.4685,0.0520,-0.1330,1.1440,-6.5190,19.2210,-32.7330,35.0700
1.4805,0.0480,-0.1170,1.1580,-7.5270,18.5040,-32.7940,34.9300
1.4872,0.0520,-0.1070,1.1610,-4.8400,18.5340,-33.3740,34.9800
1.4996,0.0610,-0.1190,1.1760,-5.2060,19.3590,-34.3210,35.0700
1.5118,0.0550,-0.1340,1.1770,-5.4050,20.8240,-34.1830,34.9300
1.5187,0.0380,-0.1430,1.1730,-4.3210,21.1600,-34.6720,34.9300
1.5308,0.0210,-0.1490,1.1730,-4.5040,21.3130,-34.1220,34.9800
1.5376,0.0040,-0.1580,1.1540,-2.5500,20.1680,-33.7400,34.9300
1.5498,0.0120,-0.1700,1.1550,-2.8240,19.2520,-32.9310,34.9800
1.5617,0.0210,-0.1720,1.1680,-2.7630,19.2520,-31.4960,35.0700
1.5690,0.0520,-0.1570,1.1600,-1.2670,17.8020,-30.9620,35.0200
1.5809,0.0800,-0.1140,1.1700,-1.0840,18.1980,-30.4890,35.0200
1.5877,0.0900,-0.0870,1.1550,-2.0610,17.5420,-31.1910,35.0700
1.6000,0.0900,-0.0830,1.1460,-0.8400,17.1600,-33.8020,34.9300
1.6072,0.1020,-0.0840,1.1730,-0.2440,16.9010,-34.6260,34.9800
1.6187,0.1090,-0.0840,1.1620,0.0000,18.6410,-34.8240,34.9800
1.6312,0.1340,-0.0770,1.1680,-0.5040,20.4730,-32.8550,34.9300
1.6382,0.1160,-0.0840,1.1770,-2.4430,23.1600,-29.8020,34.9300
1.6502,0.0880,-0.0870,1.1510,-3.6180,23.7860,-30.4120,35.0700
1.6573,0.0770,-0.0990,1.1400,-0.8700,23.6490,-32.6720,35.0200
1.6692,0.0650,-0.1120,1.1440,2.2440,20.6410,-39.1600,35.0700
1.6812,0.1070,-0.0760,1.1940,-2.0000,19.1450,-40.7330,34.9800
1.6882,0.0950,-0.1180,1.1720,1.4810,20.9160,-44.7790,35.0200
1.7007,0.1070,-0.1230,1.1880,1.0990,24.0150,-41.3890,35.0200
1.7075,0.0920,-0.1240,1.1920,-0.6260,23.8630,-41.7250,35.0700
1.7194,0.0690,-0.1270,1.1670,-3.4050,23.4350,-40.3970,34.9300
1.7319,0.0740,-0.1270,1.1780,-1.9850,21.2820,-40.1370,34.9800
1.7387,0.0940,-0.1180,1.1880,1.0080,21.8020,-39.8780,34.9800
1.7509,0.1170,-0.1180,1.2000,0.9920,21.7400,-40.2140,34.9300
1.7581,0.1140,-0.1080,1.2060,-0.7940,23.0990,-38.9310,34.9800
1.7701,0.1050,-0.1190,1.1950,-0.5340,23.7400,-40.6560,34.9800
1.7771,0.0990,-0.0980,1.1920,1.5270,23.9080,-41.6790,35.0200
1.7892,0.0870,-0.0920,1.1830,-1.1760,23.6640,-42.1830,34.9800
1.8010,0.0780,-0.0930,1.1780,-1.6640,22.4270,-42.3050,35.0700
1.8084,0.0980,-0.1080,1.1990,-1.2210,23.0990,-43.3740,35.0200
1.8203,0.0950,-0.1060,1.1890,-1.7100,23.4660,-42.5950,34.9800
1.8273,0.0920,-0.1150,1.1910,-3.2060,24.5500,-42.6410,35.0700
1.8390,0.0750,-0.1190,1.1980,-3.3130,23.8930,-43.0380,34.9300
1.8515,0.0670,-0.1250,1.1820,-3.4350,23.0080,-42.1530,34.9800
1.8583,0.0680,-0.1330,1.1950,-4.1980,23.0380,-41.3130,34.8800
1.8703,0.0680,-0.1430,1.1780,-4.9770,23.2520,-40.3820,34.9300
1.8773,0.0600,-0.1330,1.1930,-4.9010,23.5570,-39.2210,34.9800
1.8893,0.0470,-0.1170,1.1670,-4.4430,23.8170,-39.0530,34.8800
1.9016,0.0360,-0.1150,1.1470,-4.1370,22.6560,-41.0840,35.1200
1.9085,0.0310,-0.1110,1.1550,-3.6180,21.0840,-42.6560,34.9800
1.9205,0.0380,-0.1130,1.1600,-2.1980,19.9690,-42.8090,34.9800
1.9275,0.0480,-0.1190,1.1670,-1.8630,20.0150,-41.8170,34.9300
1.9397,0.0500,-0.1220,1.1910,-3.6340,20.5800,-40.3360,34.9800
1.9515,0.0550,-0.1180,1.1770,-4.7330,20.8700,-39.6030,34.9300
1.9587,0.0530,-0.1260,1.1770,-4.5950,19.9240,-39.7400,35.0200
1.9706,0.0460,-0.1300,1.1850,-4.0310,19.0230,-39.9850,34.8800
1.9779,0.0500,-0.1150,1.1910,-2.5800,18.2600,-40.0920,34.9300
1.9895,0.0600,-0.1240,1.1870,-1.2670,18.5500,-39.5570,35.0200
2.0017,0.0570,-0.1190,1.1840,-1.7860,18.6870,-39.5420,34.9800
2.0086,0.0470,-0.1160,1.1830,-1.6640,18.0460,-39.1910,35.0200
2.0209,0.0460,-0.1030,1.1810,-1.8930,18.2290,-38.4730,35.0200
2.0278,0.0450,-0.1110,1.1860,-1.1450,17.6340,-39.9080,35.0700
2.0400,0.0610,-0.1080,1.2020,0.6110,18.0310,-40.4270,34.9300
2.0469,0.0660,-0.1020,1.2040,1.1450,18.0760,-41.1910,35.0200
2.0593,0.0660,-0.1310,1.1980,-2.9770,20.7020,-38.8700,34.9800
2.0710,0.0640,-0.1170,1.2000,-3.0990,22.0760,-38.1830,34.9300
2.0783,0.0480,-0.1270,1.1890,-0.9470,22.1070,-39.1760,35.0200
2.0900,0.0450,-0.1220,1.1730,-1.7250,21.6030,-39.8170,34.9800
2.0970,0.0460,-0.1320,1.1830,-0.1070,20.4890,-40.9920,35.0200
2.1093,0.0500,-0.1400,1.1910,1.8320,19.4660,-42.1980,35.0200
2.1213,0.0450,-0.1250,1.1910,1.8020,19.0690,-40.8400,34.9800
2.1283,0.0520,-0.1200,1.1880,3.1150,19.3890,-39.9080,35.0200
2.1407,0.0680,-0.1090,1.1960,2.3050,19.4350,-39.8930,34.9300
2.1477,0.0720,-0.1150,1.2060,4.0610,20.5950,-40.9470,34.9800
2.1600,0.0690,-0.1350,1.2000,2.6410,21.1600,-40.1980,34.9300
2.1652,0.0690,-0.1330,1.1930,1.8320,21.9850,-40.1980,34.9300
2.1791,0.0600,-0.1180,1.1760,3.9850,21.8630,-40.3210,34.9800
2.1912,0.0600,-0.1210,1.1710,3.3740,20.5040,-40.3660,34.9300
2.1979,0.0690,-0.1260,1.1630,4.1370,20.6410,-40.5950,34.9800
2.2104,0.0740,-0.1280,1.1520,4.3970,20.7480,-39.6180,34.9800
2.2174,0.0810,-0.1110,1.1590,2.8090,21.4350,-37.3740,35.0200
2.2295,0.0770,-0.1230,1.1520,1.1600,20.9470,-36.6260,35.0700
2.2418,0.0860,-0.0900,1.1550,2.5650,21.1150,-38.7790,34.9800
2.2485,0.0870,-0.0740,1.1500,3.1450,21.1760,-40.3050,35.0200
2.2608,0.0840,-0.0730,1.1540,2.0150,21.0530,-41.8470,34.9800
2.2681,0.0710,-0.0630,1.1650,1.4500,22.0150,-42.2440,35.0700
2.2800,0.0680,-0.0690,1.1620,0.9470,22.3970,-41.5880,34.9300
2.2870,0.0560,-0.0850,1.1740,-0.2750,22.8700,-40.1530,35.0700
2.2993,0.0410,-0.0900,1.1620,-2.3970,23.5270,-38.5800,35.0700
2.3113,0.0390,-0.1070,1.1510,-2.9770,21.9540,-39.2520,35.0200
2.3183,0.0520,-0.1070,1.1690,-0.9470,20.6410,-41.0380,34.9800
2.3303,0.0700,-0.1190,1.1670,-2.2290,21.5420,-40.7180,34.8800
2.3375,0.0640,-0.1020,1.1660,-3.0990,22.1070,-39.6790,35.0200
2.3495,0.0560,-0.0940,1.1630,-3.0380,22.9620,-39.9390,34.9800
2.3615,0.0480,-0.0860,1.1790,-2.0310,22.9160,-40.5500,34.9800
2.3685,0.0470,-0.1040,1.1710,0.1070,23.4050,-41.8020,34.9300
2.3805,0.0390,-0.0840,1.1760,-1.1150,23.6180,-41.6340,35.0700
2.3872,0.0330,-0.1030,1.1660,-3.3890,23.9540,-39.9690,34.9300
2.3997,0.0230,-0.1230,1.1540,-4.3360,24.0310,-39.5110,34.9800
2.4117,0.0160,-0.1220,1.1660,-3.4960,24.2140,-38.6260,34.9800
2.4188,-0.0040,-0.1190,1.1480,-4.7790,22.5340,-36.9770,34.9300
2.4304,-0.0150,-0.1030,1.1350,-5.4050,21.0530,-37.3740,35.1200
2.4372,-0.0060,-0.1130,1.1320,-3.6790,18.7180,-38.8550,35.0700
2.4498,-0.0010,-0.1090,1.1520,-2.2600,18.0460,-40.3210,35.0200
2.4616,0.0020,-0.1160,1.1470,-2.3210,16.7020,-40.0150,34.9800
2.4685,0.0040,-0.1200,1.1500,-2.1220,16.6560,-37.8020,34.9800
2.4805,0.0030,-0.1370,1.1430,-4.1830,15.6490,-36.5190,34.9300
2.4875,0.0160,-0.1230,1.1490,-3.5570,15.0080,-35.9540,35.0200
2.4996,0.0260,-0.1040,1.1570,-5.2670,15.4200,-34.0150,34.9800
2.5117,0.0240,-0.1140,1.1520,-5.2980,14.8550,-35.0080,35.0200
2.5188,0.0270,-0.1270,1.1440,-5.0380,14.2440,-35.9390,34.9800
2.5309,0.0310,-0.1420,1.1450,-5.3130,13.6640,-36.2600,34.9800
2.5377,0.0400,-0.1130,1.1570,-5.2060,13.5570,-35.9690,35.0200
2.5499,0.0460,-0.1010,1.1550,-3.0230,13.4200,-37.3890,35.0200
2.5617,0.0560,-0.1000,1.1700,-3.3280,13.9390,-37.5110,34.8800
2.5690,0.0780,-0.0990,1.1820,-5.1910,15.0530,-35.8470,34.9300
2.5808,0.0610,-0.1060,1.1770,-4.2750,16.6110,-35.8930,34.9800
2.5877,0.0580,-0.1280,1.1720,-4.6720,16.6110,-37.3440,34.9800
2.6000,0.0490,-0.1290,1.1800,-2.6260,15.9390,-37.3590,35.0200
2.6071,0.0580,-0.1160,1.1770,-5.5270,16.6870,-35.2520,34.8800
2.6187,0.0650,-0.0910,1.1940,-4.0920,15.2370,-34.6720,34.8800
2.6311,0.0710,-0.1030,1.1950,-6.0610,17.3440,-34.3970,35.0200
2.6380,0.0670,-0.1160,1.1890,-3.2670,18.1830,-36.1680,34.9800
2.6502,0.0710,-0.1280,1.1830,-1.1910,18.5040,-36.0610,34.9800
2.6570,0.0560,-0.1370,1.1700,-0.9770,18.5800,-35.8630,34.9300
2.6692,0.0580,-0.1480,1.1780,-2.0760,17.3890,-34.7180,35.0700
2.6812,0.0790,-0.1260,1.1830,-0.1530,16.5040,-35.0840,34.9800
2.6879,0.0970,-0.1110,1.1950,1.0230,15.8630,-35.1600,35.0200
2.7004,0.1080,-0.0790,1.1840,-0.2600,16.7790,-34.6410,34.9800
2.7074,0.1110,-0.0860,1.1890,-3.6340,16.4120,-34.6260,34.9800
2.7195,0.1180,-0.0830,1.2030,-2.2900,16.9470,-37.3740,34.9300
2.7316,0.1220,-0.0720,1.2100,0.3210,17.4810,-40.0310,35.0700
2.7383,0.1280,-0.0740,1.2030,-0.8090,18.0920,-41.4660,35.0200
2.7506,0.1330,-0.0830,1.2190,-0.9160,19.1910,-41.5420,34.9300
2.7576,0.1220,-0.0860,1.2040,-0.4730,20.0000,-42.0460,34.9800
2.7696,0.0990,-0.1030,1.2040,-1.1450,20.7330,-42.1220,35.0200
2.7819,0.0930,-0.1140,1.2010,-1.8170,21.7560,-40.5040,34.9300
2.7887,0.0890,-0.1030,1.2030,-1.9850,21.5270,-39.4960,34.9800
2.8009,0.0920,-0.0960,1.1840,-2.2600,21.6180,-40.3970,35.0200
2.8074,0.0920,-0.1030,1.1940,0.0000,22.2600,-42.2440,34.8400
2.8200,0.0870,-0.1180,1.1990,1.3130,21.7250,-43.2670,35.0700
2.8271,0.0780,-0.1250,1.1860,0.5040,22.5500,-42.2140,35.0200
2.8390,0.0680,-0.1260,1.1720,-1.5570,21.9690,-41.2210,34.9300
2.8512,0.0690,-0.1440,1.1780,-0.3820,21.0990,-42.0000,34.9800
2.8583,0.0740,-0.1330,1.1940,0.7020,20.6110,-42.5800,35.0200
2.8703,0.0820,-0.1120,1.1820,2.0000,21.2820,-41.2520,35.0200
2.8773,0.0710,-0.1080,1.1760,3.3280,20.6110,-41.6030,34.9800
2.8894,0.0830,-0.1190,1.1730,3.1910,19.2060,-42.6260,35.0200
2.9016,0.0890,-0.1100,1.1600,3.4810,17.9390,-43.1910,34.9800
2.9087,0.1040,-0.0850,1.1470,3.4200,17.3440,-44.1530,34.9800
2.9208,0.1220,-0.0910,1.1780,2.8850,17.3130,-45.0840,35.0200
2.9280,0.1400,-0.0620,1.1900,-0.3660,19.9540,-44.1370,34.9800
2.9399,0.1070,-0.0580,1.1640,-2.8090,23.1450,-42.3660,34.9800
2.9467,0.0760,-0.0550,1.1550,-2.7940,24.4430,-43.3740,35.1200
2.9590,0.0420,-0.1000,1.1350,-3.1300,23.4500,-42.6260,34.9800
2.9711,0.0400,-0.1400,1.1460,-2.8400,21.9080,-42.8400,34.9800
2.9780,0.0570,-0.1370,1.1790,-1.5420,19.8320,-44.4730,34.9300
2.9901,0.0870,-0.1130,1.2010,0.1530,19.6340,-44.7020,34.9800
2.9970,0.0970,-0.0980,1.2060,-0.3660,20.5800,-44.5950,35.0700
3.0092,0.0900,-0.0920,1.2020,-2.2140,21.7560,-43.9080,35.0200
3.0213,0.0740,-0.1040,1.1930,-2.3210,23.8470,-42.9770,34.9800
3.0283,0.0510,-0.1100,1.1680,-2.4730,24.0310,-42.7940,34.9800
3.0405,0.0280,-0.1180,1.1510,-1.4350,22.4580,-43.0380,34.9300
3.0471,0.0280,-0.1250,1.1460,-2.2140,20.8090,-42.3050,35.0700
3.0596,0.0260,-0.1090,1.1380,-2.7020,18.7180,-41.8320,34.9800
3.0714,0.0390,-0.1120,1.1560,-1.6490,18.4430,-41.8630,34.9300
3.0782,0.0480,-0.1170,1.1510,-2.1830,19.0990,-41.2060,35.0700
3.0906,0.0420,-0.1220,1.1550,-2.0310,18.8400,-40.1980,34.9800
3.0975,0.0330,-0.1050,1.1400,-2.7020,18.8700,-40.0610,35.1200
3.1098,0.0330,-0.1000,1.1420,-2.9770,17.7250,-40.6870,34.9800
3.1215,0.0450,-0.0890,1.1600,-1.0690,17.4810,-40.6560,35.0700
3.1285,0.0570,-0.0830,1.1490,-3.4200,17.3280,-40.3820,34.9800
3.1407,0.0610,-0.0650,1.1670,-5.0230,17.2060,-41.0380,34.9800
3.1475,0.0490,-0.0890,1.1640,-3.9080,17.6490,-41.4960,34.9800
3.1597,0.0330,-0.1200,1.1590,-3.5420,17.2980,-40.5340,34.9300
3.1717,0.0240,-0.1250,1.1570,-4.6260,16.0150,-39.0380,35.0700
3.1785,0.0340,-0.1280,1.1640,-4.0000,14.8700,-39.6490,34.9300
3.1909,0.0600,-0.1130,1.1760,-1.4200,14.6870,-40.2750,34.9800
3.1978,0.0970,-0.0970,1.2000,0.6260,14.7480,-42.1220,34.9800
3.2100,0.1130,-0.0830,1.2220,-1.3740,15.3440,-41.8630,35.0200
3.2168,0.1200,-0.0830,1.2150,-2.2140,17.2520,-42.2440,35.1200
3.2288,0.1240,-0.0900,1.2140,-2.0460,19.4500,-41.6490,34.9800
3.2411,0.1200,-0.1000,1.2250,-5.0080,21.3440,-40.0000,35.0200
3.2477,0.0970,-0.0780,1.2090,-4.6720,22.6410,-39.6030,34.9800
3.2601,0.0710,-0.0810,1.1810,-4.1370,22.5800,-40.0310,34.9800
3.2671,0.0560,-0.0950,1.1750,-3.4500,22.1070,-41.2060,35.0200
3.2790,0.0600,-0.1120,1.1830,-4.0150,21.7400,-40.6720,34.9300
3.2914,0.0430,-0.1310,1.1750,-2.6410,21.9690,-40.7480,34.9800
3.2982,0.0370,-0.1220,1.1720,-2.7330,21.3440,-39.9240,35.0200
3.3104,0.0300,-0.1410,1.1630,0.0310,20.2600,-41.2980,34.9800
3.3174,0.0430,-0.1260,1.1710,0.0000,18.7480,-41.8170,34.9800
3.3292,0.0500,-0.1090,1.1550,1.4050,18.8240,-42.1070,35.0200
3.3415,0.0560,-0.1020,1.1740,-0.2290,18.9770,-41.8780,34.9300
3.3487,0.0560,-0.1000,1.1700,-1.6790,20.1980,-39.8470,34.9800
3.3605,0.0500,-0.1160,1.1580,-2.2440,20.4430,-39.1600,35.0200
3.3675,0.0460,-0.1050,1.1580,-3.0990,19.9390,-38.6410,34.9800
3.3794,0.0340,-0.1000,1.1330,-1.9080,19.2820,-38.4580,34.9800
3.3918,0.0370,-0.1020,1.1360,-3.0380,18.6870,-38.9010,35.0200
3.3986,0.0450,-0.0970,1.1340,-2.0460,17.7710,-39.3280,34.9800
3.4107,0.0620,-0.1220,1.1540,-1.5730,17.2060,-40.5040,34.9800
3.4176,0.0700,-0.0990,1.1530,-0.2290,16.9310,-41.4960,35.0200
3.4297,0.0830,-0.1230,1.1540,-0.9310,17.5110,-40.7180,34.9800
3.4354,0.0810,-0.1150,1.1520,-2.6410,17.5270,-40.5650,34.9800
3.4489,0.0680,-0.1110,1.1570,-3.3280,17.5880,-39.7100,35.0200
3.4611,0.0690,-0.1230,1.1590,-4.2440,17.4350,-39.7400,34.9800
3.4680,0.0880,-0.1200,1.1840,-3.4960,18.6870,-40.0150,35.0700
3.4800,0.0900,-0.1330,1.1880,-3.6790,19.8320,-39.2820,34.9300
3.4869,0.0810,-0.1180,1.1820,-5.0990,20.9920,-37.4660,34.9800
3.4992,0.0580,-0.1290,1.1560,-2.7630,20.7330,-38.0000,34.9300
3.5110,0.0520,-0.1310,1.1440,-1.0230,19.0990,-39.2370,35.0200
3.5183,0.0590,-0.1390,1.1510,0.2900,16.9920,-39.8630,34.9800
3.5302,0.0900,-0.1340,1.1670,0.8700,16.4120,-39.8780,35.1200
3.5371,0.1020,-0.1170,1.1750,-1.0690,16.5040,-38.9770,34.9300
3.5495,0.1180,-0.0580,1.1810,-3.5420,17.6340,-38.5190,34.9800
3.5616,0.1070,-0.0450,1.1770,-2.0310,18.6410,-40.7180,35.0200
3.5685,0.0970,-0.0600,1.1830,-2.3660,19.5880,-41.2520,35.0200
3.5806,0.0950,-0.0910,1.1740,-4.3820,20.4430,-41.3280,35.0700
3.5875,0.0800,-0.1130,1.1790,-5.4660,21.2370,-40.6110,34.9300
3.5998,0.0650,-0.1190,1.1730,-5.8470,20.7480,-41.1450,35.0200
3.6114,0.0690,-0.0970,1.1710,-5.2210,19.7710,-42.0150,34.8800
3.6184,0.0620,-0.0870,1.1890,-3.1450,19.9390,-42.6260,35.0200
3.6307,0.0690,-0.1180,1.1870,-1.2820,19.8630,-42.6260,35.0200
3.6377,0.0610,-0.1290,1.1900,-1.9080,19.1760,-42.8240,34.9800
3.6497,0.0620,-0.1430,1.1710,-2.9010,18.2600,-44.0310,34.9300
3.6617,0.0730,-0.1270,1.1830,-1.5110,18.3660,-41.5110,35.0200
3.6687,0.0890,-0.1270,1.2090,-0.9310,18.0760,-42.1070,34.9800
3.6807,0.0900,-0.1230,1.1930,-2.1070,18.3820,-41.0990,34.9300
3.6874,0.0940,-0.1220,1.1900,-0.6260,19.3890,-41.8170,35.1200
3.6999,0.1060,-0.1190,1.1880,-0.7330,19.6490,-42.1220,34.9800
3.7053,0.1030,-0.1210,1.1770,-0.5950,20.4890,-40.9470,34.9300
3.7189,0.0970,-0.1160,1.1750,-2.8700,20.2440,-39.8780,34.8800
3.7311,0.1050,-0.0950,1.1780,-2.3050,20.2600,-40.2440,34.9800
3.7381,0.1150,-0.0850,1.1680,-0.6870,20.2750,-41.6490,34.9300
3.7502,0.1100,-0.0830,1.1710,-0.9920,19.7250,-42.7180,34.9800
3.7571,0.1110,-0.0700,1.1720,-1.2820,20.0760,-43.6490,34.9800
3.7692,0.1060,-0.0810,1.1790,0.3210,21.0990,-44.8700,34.9300
3.7814,0.1100,-0.0940,1.1730,-1.2670,21.8780,-43.1910,34.9800
3.7879,0.1080,-0.1140,1.1750,-2.6560,22.9470,-41.6180,34.9800
3.8004,0.0930,-0.1210,1.1680,-4.3970,22.3360,-41.6340,34.9300
3.8074,0.0950,-0.1060,1.1800,-2.5800,21.8020,-42.8850,34.9800
3.8194,0.1040,-0.1220,1.1740,-1.4500,21.8630,-45.3740,34.9800
3.8313,0.1050,-0.1250,1.1760,-1.1910,22.0760,-44.9620,35.1200
3.8385,0.1050,-0.1260,1.1670,-0.3050,22.1980,-44.1530,34.9800
3.8505,0.0950,-0.1360,1.1580,-0.1370,21.7100,-44.3660,34.9800
3.8576,0.0940,-0.1350,1.1640,-1.7860,21.0990,-44.1220,34.9300
3.8694,0.0950,-0.0970,1.1630,-2.8700,20.2440,-43.4200,35.0700
3.8815,0.1060,-0.0810,1.1780,-2.8240,20.6720,-44.5040,35.0700
3.8882,0.1160,-0.0780,1.1830,-1.8020,22.3050,-45.5270,35.0200
3.9006,0.1220,-0.0930,1.1760,-0.5950,22.9920,-46.3210,34.9800
3.9075,0.1090,-0.1080,1.1540,-1.9390,23.5420,-45.9240,34.8800
3.9196,0.0930,-0.1180,1.1490,-3.9080,21.9240,-45.7400,35.0200
3.9317,0.0970,-0.1120,1.1740,-3.8170,22.1220,-46.5800,34.9800
3.9387,0.1170,-0.0990,1.1730,-3.2820,22.3050,-46.1680,34.9800
3.9509,0.1180,-0.0990,1.1790,-4.5500,23.9390,-45.8630,35.0200
3.9578,0.1030,-0.1010,1.1580,-5.8930,24.2750,-45.2670,35.0700
3.9700,0.0980,-0.1270,1.1480,-4.2440,24.2900,-47.0530,35.1700
3.9818,0.0990,-0.1420,1.1490,-4.2900,22.8240,-46.8850,35.1200
3.9888,0.0940,-0.1300,1.1660,-4.7180,22.5950,-46.6410,34.9800
