Time,AX,AY,AZ,GX,GY,GZ,T
0.0000,0.1300,-0.1430,1.1640,-3.9850,27.7250,-57.0990,34.8400
0.0005,0.1110,-0.1550,1.1520,-3.1300,26.4430,-56.1220,34.8800
0.0010,0.1220,-0.1440,1.1330,1.9850,27.5730,-57.1150,34.9300
0.0015,0.1520,-0.1640,1.1420,1.3440,28.0310,-58.4580,34.8400
0.0019,0.1300,-0.1520,1.1690,-2.3210,28.7330,-55.7250,34.8800
0.0023,0.1350,-0.1500,1.2090,1.8320,31.0840,-56.4270,34.8400
0.0028,0.1200,-0.1320,1.1920,-6.1830,31.2820,-57.1760,34.8400
0.0033,0.1060,-0.1310,1.2050,-4.9920,32.0610,-58.1830,34.8800
0.0037,0.0800,-0.1350,1.2020,-1.0380,34.1530,-59.6180,34.8400
0.0041,0.0750,-0.1350,1.2000,-1.1760,30.8700,-59.7100,34.7900
0.0044,0.0760,-0.1470,1.1800,-2.3360,29.4660,-62.1370,34.8800
0.0047,0.0870,-0.1810,1.2080,-7.8930,30.8240,-57.6180,34.7400
0.0051,0.0990,-0.1570,1.2180,-7.2210,33.7560,-49.8630,34.8800
0.0054,0.0730,-0.1870,1.2080,-2.4890,29.4350,-53.6490,34.8800
0.0058,0.0840,-0.1780,1.2020,4.0460,28.9470,-52.9620,34.8400
0.0062,0.0830,-0.1460,1.1940,6.9770,26.9310,-54.6110,34.8800
0.0066,0.0580,-0.1190,1.1870,8.1370,26.7790,-57.9240,34.8800
0.0070,0.0700,-0.1310,1.1940,12.8550,28.9310,-61.8320,34.8400
0.0075,0.0490,-0.1500,1.1720,6.7940,28.6870,-64.9010,34.7900
0.0078,0.0270,-0.1460,1.1670,7.7250,30.5650,-60.7180,34.8800
0.0082,0.0230,-0.1560,1.1570,7.9540,29.3740,-57.4350,34.8800
0.0088,0.0200,-0.1430,1.1660,6.0610,27.2980,-57.3440,34.8800
0.0093,0.0450,-0.1240,1.1680,5.6950,26.1530,-60.1530,34.9300
0.0102,0.0480,-0.0710,1.1820,20.7790,26.9470,-59.4960,34.9300
0.0105,0.0550,-0.1110,1.1740,12.7790,24.5500,-54.5800,34.8800
0.0109,0.0650,-0.1380,1.1520,4.1980,24.5950,-58.5650,34.9300
0.0119,0.0580,-0.0930,1.1710,8.0760,23.7710,-61.2980,34.8800
0.0122,0.0560,-0.1080,1.1540,9.9390,21.8930,-65.6950,34.8800
0.0125,0.0660,-0.1110,1.1680,8.9470,21.0380,-70.9310,34.8400
0.0129,0.0540,-0.0950,1.1870,6.8700,22.7480,-70.3820,34.8800
0.0132,0.0440,-0.0850,1.1820,8.5800,23.2520,-69.5570,34.8800
0.0137,0.0370,-0.0810,1.1880,-0.4890,23.0530,-67.4050,34.9300
0.0141,0.0380,-0.0440,1.2200,-0.3050,25.3280,-64.1980,34.8800
0.0145,0.0360,-0.0560,1.2070,-3.1910,26.8700,-62.0150,34.8800
0.0149,0.0230,-0.0710,1.1880,-4.1070,28.9010,-64.7180,35.0200
0.0153,0.0080,-0.1490,1.1720,-4.8240,29.9080,-68.2440,34.9800
0.0157,0.0050,-0.1390,1.2030,2.7480,29.5570,-70.1070,34.7900
0.0160,0.0030,-0.1500,1.1680,3.4660,30.5190,-68.1530,34.8400
0.0164,-0.0190,-0.1710,1.1650,0.5950,28.2900,-67.8470,34.8800
0.0171,-0.0300,-0.1450,1.1270,3.4660,25.8020,-66.7480,34.8400
0.0176,-0.0360,-0.1500,1.1280,11.6640,27.1600,-63.5110,34.8400
0.0181,-0.0410,-0.1310,1.1450,7.2370,23.9080,-61.8470,34.8800
0.0185,-0.0230,-0.1320,1.1690,2.1980,23.2670,-61.7710,34.8400
0.0234,0.0010,-0.0810,1.1730,1.6790,22.6260,-59.3590,34.8800
0.0239,-0.0080,-0.0670,1.1460,-0.2290,22.6870,-58.6260,34.8800
0.0243,-0.0150,-0.0810,1.1170,0.4430,20.9310,-63.4050,34.8400
0.0247,0.0080,-0.1230,1.1740,-3.1450,18.0760,-63.6950,34.7900
0.0253,0.0150,-0.0950,1.1670,-0.1070,17.6490,-63.6490,34.7900
0.0256,0.0110,-0.0700,1.1620,-0.0310,19.8170,-66.0000,34.8400
0.0259,0.0150,-0.0300,1.1680,-7.0840,21.1910,-66.9470,34.8800
0.0261,-0.0130,-0.0610,1.1570,-0.9920,23.6180,-72.0000,34.8800
0.0263,-0.0160,-0.0950,1.1710,-0.8700,26.2600,-71.5570,34.8800
0.0274,-0.0420,-0.1310,1.1450,-10.3360,26.7180,-67.0380,34.8800
0.0276,-0.0540,-0.1390,1.1590,-13.0990,22.6410,-58.3820,34.7400
0.0278,-0.0790,-0.1130,1.1270,-7.3590,19.1760,-52.2290,34.9300
0.0284,-0.0510,-0.1620,1.1150,-9.9390,13.1450,-56.3820,34.7900
0.0286,-0.0270,-0.1140,1.1080,-13.8930,3.9540,-69.2980,34.8400
0.0288,-0.0090,-0.0780,1.1240,-12.4120,-3.2670,-79.5420,34.8800
0.0299,-0.0190,-0.1180,1.1280,-12.6560,2.9160,-80.7020,34.8800
0.0301,-0.0040,-0.1010,1.1320,-2.8090,6.8550,-83.8780,34.8400
0.0304,-0.0350,-0.1350,1.1540,-10.6720,14.4120,-75.5270,34.8800
0.0311,-0.0500,-0.0730,1.1410,-17.8930,14.0150,-71.3280,34.7900
0.0313,-0.0600,-0.0710,1.1510,-9.5730,11.0380,-76.2140,34.7400
0.0315,-0.0420,-0.1290,1.1730,-5.1150,13.8630,-76.4890,34.7900
0.0317,-0.0690,-0.1970,1.1680,-13.0080,14.2600,-66.2900,34.7900
0.0319,-0.0540,-0.1840,1.1990,-6.6260,13.4350,-61.2060,34.8400
0.0321,-0.0590,-0.2100,1.1780,-7.9690,13.3590,-59.2670,34.7900
0.0323,-0.0300,-0.2030,1.1960,-2.8090,17.2210,-58.0760,34.8400
0.0325,-0.0210,-0.2150,1.1910,-3.9690,15.9080,-56.6110,34.8400
0.0327,-0.0260,-0.1900,1.1920,2.8090,15.5730,-58.0150,34.8800
0.0329,-0.0270,-0.1680,1.1720,14.8550,15.7100,-58.8240,34.9300
0.0331,-0.0190,-0.1340,1.1760,8.0000,16.4270,-53.8470,34.9300
0.0357,-0.0160,-0.0900,1.1580,4.8240,17.9240,-50.4430,34.7900
0.0362,-0.0140,-0.0870,1.1420,5.0380,19.2820,-49.3590,34.8400
0.0366,-0.0090,-0.0760,1.1390,4.1070,19.9690,-48.2140,34.8400
0.0370,0.0190,-0.0880,1.1300,2.5650,20.7940,-48.2440,34.8800
0.0413,0.0260,-0.0910,1.1460,1.7860,21.8930,-50.7330,34.8400
0.0442,0.0240,-0.0980,1.1500,4.7330,23.0990,-53.7100,34.7900
0.0447,0.0230,-0.1280,1.1390,4.2750,24.3210,-52.3050,34.8800
0.0454,0.0070,-0.1510,1.1300,-0.9470,24.0760,-48.1220,34.8400
0.0472,0.0040,-0.1220,1.1180,-2.2900,22.5340,-47.0380,34.8800
0.0475,0.0090,-0.1040,1.1450,-2.5650,21.3280,-45.4200,34.8800
0.0480,0.0200,-0.0990,1.1420,-4.7480,20.6870,-42.9620,34.8400
0.0484,0.0220,-0.1020,1.1560,-2.7180,19.4960,-42.3820,34.8800
0.0487,0.0260,-0.1000,1.1470,-0.5500,19.2060,-44.6260,34.8800
0.0491,0.0240,-0.1310,1.1620,1.4350,17.8020,-45.9690,34.8400
0.0494,0.0390,-0.1400,1.1580,-2.3820,17.5110,-44.5190,34.8800
0.0497,0.0380,-0.1300,1.1710,-4.4120,16.9310,-41.4050,34.8800
0.0507,0.0610,-0.1060,1.1720,-5.5570,17.0380,-42.2440,34.7400
0.0512,0.0690,-0.1060,1.1800,-5.0380,18.0610,-46.4890,34.8800
0.0518,0.0900,-0.0820,1.1900,-5.4500,19.5110,-49.5110,34.8800
0.0520,0.0730,-0.1030,1.1960,-8.3360,20.6720,-51.5270,34.8400
0.0522,0.0560,-0.0940,1.1970,-5.2980,21.5730,-54.9160,34.8800
0.0524,0.0350,-0.1450,1.2160,3.5880,21.4350,-57.7860,34.9300
0.0526,0.0390,-0.1710,1.2350,6.3970,23.7400,-57.8020,34.7900
0.0528,0.0310,-0.1800,1.2310,1.1150,21.9080,-56.9770,34.8800
0.0529,0.0200,-0.1810,1.2130,7.7250,20.9770,-58.5650,34.8400
0.0531,0.0410,-0.1910,1.2310,11.2820,20.6720,-59.2670,34.7400
0.0533,0.0550,-0.1820,1.2320,5.6180,20.7330,-57.1150,34.7900
0.0535,0.0610,-0.1430,1.2330,3.1150,21.8630,-54.9770,34.8400
0.0536,0.0620,-0.1300,1.2260,7.9390,24.3210,-55.2210,34.7900
0.0538,0.0600,-0.1200,1.2120,4.2140,25.6340,-54.7480,34.8800
0.0540,0.0420,-0.0830,1.1780,6.4730,25.1600,-55.5730,34.9300
0.0542,0.0200,-0.0640,1.1160,10.1980,33.1150,-53.9390,34.8400
0.0543,0.0330,-0.0630,1.1650,8.4270,23.6640,-54.6260,34.8800
0.0545,0.0350,-0.0550,1.1570,4.8550,25.2210,-51.4050,34.8400
0.0547,0.0330,-0.0540,1.1580,0.8090,25.9850,-47.1150,34.7900
0.0549,0.0220,-0.0710,1.1820,-4.4120,27.7250,-42.9310,34.7900
0.0550,0.0150,-0.0840,1.1480,-5.8020,26.0310,-41.4810,34.8400
0.0552,0.0000,-0.0930,1.1500,-8.8090,23.2060,-44.1220,34.8800
0.0554,0.0040,-0.1070,1.1680,0.6260,21.8470,-47.0380,34.7900
0.0556,0.0060,-0.1090,1.1680,-1.3890,19.2670,-48.1220,34.8400
0.0557,0.0060,-0.1110,1.1730,0.4730,19.8320,-45.1150,34.7900
0.0559,0.0200,-0.1370,1.1910,0.1070,21.0690,-42.3970,34.7900
0.0562,0.0230,-0.1280,1.1890,-5.8930,20.2440,-39.2520,34.7400
0.0564,0.0100,-0.1110,1.1650,-8.3050,19.3440,-41.2980,34.7900
0.0565,0.0090,-0.0960,1.1470,-2.9620,18.9010,-42.0760,34.8400
0.0567,0.0030,-0.1180,1.1550,-5.6950,16.9920,-41.7250,34.8400
0.0569,0.0010,-0.1060,1.1500,-7.9080,15.9540,-42.9160,34.7900
0.0571,0.0180,-0.1000,1.1710,-4.8700,16.5040,-42.6870,34.8400
0.0573,0.0470,-0.1310,1.1910,-5.5110,16.7330,-43.9240,34.7400
0.0574,0.0620,-0.1150,1.2000,-9.0380,17.4960,-44.2600,34.7900
0.0582,0.0510,-0.0870,1.1880,-2.9160,18.2290,-45.0230,34.8400
0.0586,0.0460,-0.0920,1.1850,-1.2060,17.9390,-46.0760,34.8400
0.0588,0.0370,-0.1120,1.2000,1.0230,17.0380,-45.8320,34.7900
0.0590,0.0680,-0.1220,1.2110,0.9770,19.5880,-44.2750,34.8400
0.0592,0.0650,-0.0860,1.2040,0.5800,19.9690,-40.6870,34.7900
0.0593,0.0570,-0.0960,1.1860,-3.0230,20.7630,-40.2900,34.7900
0.0595,0.0500,-0.0950,1.1760,-1.4810,20.3970,-42.3210,34.9300
0.0597,0.0520,-0.0850,1.1810,0.4270,19.8170,-45.0230,34.8800
0.0598,0.0640,-0.0830,1.1720,2.1070,18.9160,-47.6640,34.7900
0.0600,0.0540,-0.0890,1.1740,0.0460,18.4120,-46.8400,34.7400
0.0602,0.0520,-0.0880,1.1650,-1.1760,18.8850,-46.0150,34.7900
0.0603,0.0550,-0.1070,1.1720,-2.3050,19.4660,-45.6640,34.8800
0.0605,0.0680,-0.1020,1.1940,-4.9470,21.4200,-42.8090,34.8400
0.0607,0.0640,-0.0970,1.1690,-6.6110,23.0840,-40.4430,34.7900
0.0608,0.0390,-0.1220,1.1500,-6.4270,22.9310,-39.8780,34.7400
0.0610,0.0310,-0.1240,1.1450,-2.7330,20.6720,-42.5650,34.7900
0.0613,0.0410,-0.1100,1.1480,-0.1370,19.0690,-44.6720,34.7900
0.0617,0.0520,-0.1010,1.1780,0.7020,18.0150,-46.4730,34.8400
0.0620,0.0700,-0.0860,1.1840,1.0840,18.6410,-46.2440,34.8400
0.0624,0.0820,-0.0930,1.1760,-2.8850,19.3590,-44.6720,34.7900
0.0627,0.0740,-0.0980,1.1920,-3.1600,19.9080,-44.3360,34.8400
0.0630,0.0660,-0.1190,1.1730,-1.3130,19.8020,-44.0610,34.7900
0.0632,0.0830,-0.1210,1.1760,-2.3970,19.6030,-44.3050,34.7900
0.0633,0.0810,-0.1210,1.1930,-0.3820,20.1370,-45.0990,34.8400
0.0635,0.0930,-0.1060,1.1870,-1.3280,21.4810,-45.1600,34.8800
0.0637,0.0810,-0.1050,1.1920,-4.2140,22.3510,-44.0920,34.7900
0.0638,0.0760,-0.0910,1.1700,-5.3280,22.8090,-43.5730,34.8400
0.0640,0.0760,-0.0940,1.1650,-4.7480,23.6490,-43.2820,34.7900
0.0642,0.0610,-0.1080,1.1580,-3.9080,23.9390,-42.9310,34.7900
0.0643,0.0420,-0.1240,1.1550,-4.4120,22.8090,-43.4960,34.8400
0.0645,0.0380,-0.1020,1.1530,-1.9240,21.8470,-44.6110,34.7900
0.0649,0.0400,-0.1140,1.1610,0.5650,20.7790,-45.6950,34.9300
0.0652,0.0510,-0.1140,1.1580,0.1980,19.6340,-46.5950,34.8400
0.0654,0.0440,-0.0860,1.1500,-2.1530,19.5270,-44.5950,34.8800
0.0656,0.0490,-0.0850,1.1460,-1.6030,18.8240,-45.1300,34.7400
0.0657,0.0520,-0.1030,1.1620,-2.0310,18.8850,-44.4890,34.8800
0.0659,0.0510,-0.1000,1.1650,-3.7250,19.2520,-44.2290,34.8400
0.0661,0.0510,-0.0880,1.1590,-3.7710,19.3890,-44.5190,34.7900
0.0662,0.0480,-0.0870,1.1650,-5.0380,19.8170,-44.5500,34.8800
0.0664,0.0330,-0.0850,1.1810,-2.9470,19.6950,-45.6180,34.9300
0.0735,0.0400,-0.1150,1.1670,-7.4500,18.8850,-46.1530,34.8400
0.0804,0.0300,-0.1200,1.1940,-5.7400,20.1980,-42.8400,34.8800
0.0922,0.0130,-0.1300,1.1670,-2.0760,19.2820,-43.1450,34.9300
0.0993,0.0270,-0.1300,1.1780,-2.5340,17.6180,-44.1070,34.7900
0.1113,0.0300,-0.1370,1.1760,-4.4730,16.6110,-43.1910,34.7900
0.1237,0.0500,-0.1360,1.1920,-3.0530,16.9010,-41.8780,34.8400
0.1304,0.0730,-0.1090,1.2050,-3.5570,17.2980,-42.2750,34.8800
0.1426,0.0830,-0.0860,1.1970,-2.3820,18.5650,-42.9160,34.9800
0.1493,0.0800,-0.0430,1.1860,-1.7710,19.1150,-44.3970,34.8400
0.1615,0.0620,-0.1020,1.1860,-1.2370,20.9310,-44.2600,34.7900
0.1740,0.0440,-0.0890,1.1660,-2.4890,20.7790,-43.2520,34.7900
0.1806,0.0450,-0.1080,1.1680,-1.8020,20.2900,-43.0690,34.6500
0.1929,0.0440,-0.1270,1.1780,-2.3210,20.0760,-42.5950,34.7900
0.1997,0.0440,-0.1260,1.1860,-2.2750,20.0760,-41.5880,34.8400
0.2119,0.0420,-0.1240,1.1700,-2.9310,19.8020,-41.2370,34.8400
0.2239,0.0400,-0.1000,1.1650,-2.0920,19.0990,-40.9620,34.7900
0.2310,0.0520,-0.1040,1.1520,-2.0310,18.1220,-42.2290,34.9300
0.2431,0.0610,-0.0950,1.1630,-1.4200,18.3510,-42.3510,34.8400
0.2500,0.0530,-0.1110,1.1610,-0.8400,19.1910,-42.1680,34.8800
0.2619,0.0510,-0.0990,1.1640,-5.4200,18.4430,-41.4810,34.8400
0.2744,0.0580,-0.0860,1.1640,-1.4660,24.5040,-44.1830,34.8400
0.2811,0.0680,-0.1130,1.1720,-4.1370,19.1450,-42.2440,34.7900
0.2933,0.0640,-0.1310,1.1850,-6.1980,19.4350,-40.5340,34.8400
0.3000,0.0440,-0.1390,1.1820,-5.7250,19.9080,-40.3210,34.8400
0.3124,0.0440,-0.1510,1.1710,-2.5340,19.5570,-40.0760,34.7900
0.3246,0.0480,-0.1460,1.1770,-3.4500,19.2210,-39.7400,34.9300
0.3313,0.0630,-0.1170,1.1710,-2.5340,18.1980,-39.6790,34.8800
0.3436,0.0650,-0.0970,1.1690,-1.2060,18.5650,-39.9390,34.8800
0.3505,0.0780,-0.1000,1.1720,-0.9010,18.3050,-40.1370,34.8400
0.3626,0.0920,-0.0860,1.1640,-1.6030,18.9770,-40.8700,34.8800
0.3744,0.0950,-0.0840,1.1680,-2.8550,19.7860,-42.0310,34.8800
0.3817,0.0960,-0.0950,1.1700,-1.0230,19.9690,-44.9620,34.8400
0.3936,0.0890,-0.1120,1.1680,0.6870,20.6870,-44.1070,34.7900
0.4008,0.0690,-0.1040,1.1650,-3.6180,21.0690,-43.7250,34.8400
0.4129,0.0600,-0.0900,1.1510,-6.9160,20.0460,-43.0230,34.7900
0.4195,0.0550,-0.0830,1.1600,-4.4580,21.9850,-42.5040,34.7900
0.4320,0.0490,-0.1240,1.1660,-6.4580,21.5420,-42.1830,34.8400
0.4438,0.0490,-0.1250,1.1770,-4.7630,21.7250,-42.2900,34.8400
0.4507,0.0550,-0.1330,1.1680,-4.1980,21.7860,-41.4200,34.8800
0.4629,0.0510,-0.1270,1.1770,-3.1300,21.0840,-42.9770,34.7400
0.4697,0.0510,-0.1220,1.1800,-0.8400,22.4890,-44.9920,34.7900
0.4819,0.0510,-0.1060,1.1730,-3.0690,22.4890,-41.0530,34.8800
0.4940,0.0480,-0.0910,1.1760,-2.2140,22.6720,-41.0530,34.8400
0.5008,0.0500,-0.1030,1.1690,-0.4890,23.6640,-40.1530,34.8800
0.5131,0.0480,-0.1200,1.1610,-3.8780,23.9540,-37.5110,34.7900
0.5198,0.0380,-0.1330,1.1540,-4.9620,24.0000,-37.2980,34.8400
0.5321,0.0570,-0.1270,1.1870,-5.0840,25.1600,-35.8930,34.7900
0.5442,0.0400,-0.1100,1.1600,-4.4890,25.2980,-38.1370,34.7900
0.5512,0.0440,-0.1270,1.1670,-4.1370,24.7480,-38.6560,34.8400
0.5634,0.0270,-0.0980,1.1330,-4.4890,25.5420,-37.0530,34.8800
0.5702,0.0060,-0.1230,1.1480,-5.5420,23.8470,-38.3050,34.8400
0.5825,0.0060,-0.1290,1.1530,-5.0530,22.0920,-38.2440,34.8400
0.5942,0.0040,-0.1250,1.1500,-2.5650,20.7180,-38.4890,34.7900
0.6015,0.0100,-0.1480,1.1510,-2.7330,19.0080,-38.7020,34.8400
0.6133,0.0250,-0.1330,1.1520,-3.9080,18.1680,-36.6110,34.8400
0.6205,0.0510,-0.1150,1.1640,-3.6180,17.6790,-36.6260,34.8800
0.6324,0.0830,-0.0930,1.1850,-4.4580,18.2290,-36.7790,34.8400
0.6445,0.0750,-0.0770,1.1720,-4.8550,19.0080,-36.8240,34.7900
0.6512,0.0720,-0.0800,1.1550,-2.9010,18.7330,-38.3360,34.8800
0.6634,0.0790,-0.1060,1.1870,-5.7400,18.4120,-37.2670,34.8400
0.6702,0.0760,-0.1120,1.1810,-5.9390,19.0530,-37.3130,34.7900
0.6825,0.0840,-0.1350,1.1850,-7.0840,19.5730,-36.7180,34.7900
0.6885,0.0940,-0.1240,1.1970,-7.8020,21.3130,-36.8700,34.8400
0.7014,0.0880,-0.1180,1.2040,-8.4730,23.2520,-36.7940,34.7900
0.7140,0.0780,-0.1390,1.2000,-7.2820,24.7330,-37.8930,34.8400
0.7208,0.0550,-0.1380,1.1920,-6.1530,25.0230,-37.1910,34.8800
0.7329,0.0350,-0.1490,1.1740,-4.5800,24.5190,-37.3280,34.7900
0.7397,0.0270,-0.1300,1.1630,-1.3890,23.1910,-38.5040,34.8400
0.7517,0.0330,-0.1280,1.1710,-2.8090,22.4430,-37.0690,34.8400
0.7638,0.0410,-0.1240,1.1700,-3.6790,22.1370,-35.0530,34.8800
0.7710,0.0560,-0.1390,1.1800,-3.5570,22.5800,-34.8850,34.7400
0.7829,0.0630,-0.1400,1.1750,-5.8470,24.1370,-35.1600,34.7900
0.7900,0.0490,-0.1070,1.1620,-1.3740,23.6180,-37.4810,34.7900
0.8020,0.0590,-0.0900,1.1560,1.4200,21.9080,-38.5190,34.8400
0.8141,0.0660,-0.0980,1.1780,-0.1220,20.5190,-38.7940,34.8800
0.8213,0.0790,-0.0930,1.1830,-0.8090,21.7560,-38.0460,34.7900
0.8330,0.0730,-0.0940,1.1690,-3.7100,23.7860,-35.1300,34.8400
0.8403,0.0650,-0.1040,1.1660,-5.5110,24.5500,-35.2210,34.8800
0.8519,0.0420,-0.1340,1.1580,-5.7100,24.1530,-35.6640,34.8800
0.8644,0.0300,-0.1330,1.1670,-5.1600,22.8240,-36.8700,34.8400
0.8710,0.0280,-0.1550,1.1740,-4.9770,22.2750,-36.1980,34.7900
0.8834,0.0310,-0.1580,1.1760,-5.2980,21.3440,-35.6490,34.8400
0.8903,0.0170,-0.1490,1.1660,-1.0990,19.4200,-36.3050,34.8400
0.9022,0.0230,-0.1350,1.1500,-1.3130,17.4350,-35.7100,34.7900
0.9145,0.0220,-0.0930,1.1440,0.5500,14.7630,-36.0310,34.8400
0.9214,0.0440,-0.0900,1.1720,0.6870,13.2820,-36.6560,34.8400
0.9335,0.0680,-0.0860,1.1900,0.8400,13.8170,-37.6340,34.8800
0.9409,0.0840,-0.1190,1.1940,-1.0990,15.3280,-37.2670,34.8400
0.9527,0.0780,-0.1090,1.1880,-0.9770,17.6030,-36.7940,34.8800
0.9594,0.0660,-0.1060,1.1780,-1.2820,17.0530,-36.6410,34.7900
0.9720,0.0640,-0.1360,1.1790,-4.1220,16.2600,-36.9010,34.7400
0.9839,0.0700,-0.1300,1.1920,-4.7940,16.4120,-36.5040,34.8800
0.9910,0.0800,-0.1360,1.1980,-2.1070,17.6030,-36.7790,34.7900
1.0028,0.0810,-0.1300,1.1890,-3.4050,19.2210,-36.8550,34.9300
1.0097,0.0730,-0.1540,1.1960,-3.7250,20.2900,-36.8550,34.8800
1.0220,0.0560,-0.1630,1.1780,-4.2750,20.4730,-36.4890,34.9800
1.0341,0.0470,-0.1580,1.1580,-2.3510,20.0760,-37.4350,34.7900
1.0407,0.0530,-0.1620,1.1640,-1.6180,18.6110,-37.4200,34.7900
1.0529,0.0540,-0.1460,1.1620,-4.8550,19.3130,-36.3050,34.8400
1.0595,0.0410,-0.1330,1.1580,-2.4120,20.1220,-36.1680,34.8400
1.0718,0.0400,-0.1330,1.1590,0.5340,20.5040,-37.0230,34.8800
1.0841,0.0480,-0.1420,1.1550,-1.2370,19.5880,-36.5190,34.8400
1.0909,0.0450,-0.1320,1.1450,-0.5650,18.1980,-36.5950,34.8800
1.1032,0.0490,-0.1300,1.1530,-0.6560,17.6490,-36.0920,34.8800
1.1098,0.0510,-0.1240,1.1560,-3.6490,17.7400,-35.1910,34.9300
1.1222,0.0540,-0.0800,1.1530,-5.0530,17.8020,-34.9620,34.8400
1.1343,0.0380,-0.0940,1.1520,-2.7180,18.2900,-35.7560,34.7900
1.1413,0.0330,-0.1130,1.1510,-2.6870,17.4200,-36.8850,34.9300
1.1534,0.0250,-0.1120,1.1660,0.5500,17.7250,-38.0000,34.8800
1.1602,0.0370,-0.1520,1.1710,0.6410,17.1450,-36.6110,34.8800
1.1724,0.0440,-0.1690,1.1830,-3.5270,16.9920,-32.9770,34.8400
1.1795,0.0480,-0.1500,1.1780,-5.1300,17.0990,-30.9470,34.7900
1.1915,0.0550,-0.1440,1.1810,-2.2600,16.6410,-32.4890,34.8800
1.2038,0.0710,-0.1230,1.1870,-1.7400,16.2140,-34.3820,34.8400
1.2105,0.0830,-0.1190,1.2060,0.4430,15.2520,-34.7790,34.8800
1.2228,0.0970,-0.1030,1.2010,-4.6110,17.4050,-34.7790,34.7900
1.2299,0.1090,-0.0880,1.2030,-7.6490,18.3660,-34.4430,34.8400
1.2418,0.0870,-0.1150,1.2010,-13.6030,21.1300,-32.9470,34.7900
1.2541,0.0700,-0.1190,1.2000,-3.6180,23.1910,-34.8850,34.7900
1.2608,0.0510,-0.1280,1.1820,-0.7330,22.2290,-36.0460,34.8400
1.2732,0.0360,-0.1320,1.1770,-3.6950,21.2670,-34.7020,34.7900
1.2799,0.0440,-0.1580,1.1870,-3.1910,20.2440,-35.8020,34.9300
1.2921,0.0460,-0.1440,1.1900,-2.1220,20.8240,-34.8850,34.9300
1.3039,0.0410,-0.1560,1.1710,-1.2670,19.8170,-35.1910,34.7900
1.3110,0.0330,-0.1640,1.1830,0.3360,19.0990,-36.1530,34.8400
1.3234,0.0390,-0.1630,1.1710,1.4810,18.5950,-35.6030,34.8400
1.3301,0.0510,-0.1600,1.1830,0.0920,18.5800,-35.5570,34.8800
1.3421,0.0780,-0.1310,1.1770,-2.9770,21.4960,-39.3280,34.9300
1.3545,0.0620,-0.1010,1.1690,-0.7790,21.6490,-34.3660,34.8400
1.3611,0.0500,-0.1110,1.1580,-1.7100,21.7250,-34.6560,34.9800
1.3734,0.0450,-0.0960,1.1530,-0.9310,21.6340,-35.4200,34.9300
1.3803,0.0540,-0.0950,1.1530,0.5950,20.6110,-36.4120,34.8800
1.3924,0.0510,-0.0920,1.1430,0.3970,20.6720,-36.5190,34.8800
1.3995,0.0590,-0.0930,1.1390,-0.8700,20.5650,-36.2290,34.8400
1.4119,0.0690,-0.1060,1.1710,-4.0310,21.6490,-35.3440,34.8800
1.4237,0.0600,-0.0980,1.1720,-3.5880,23.3890,-34.2750,34.8800
1.4310,0.0560,-0.1200,1.1630,-6.7790,24.2290,-33.2980,34.7400
1.4428,0.0440,-0.1390,1.1750,-7.2520,23.8020,-33.4200,34.8800
1.4501,0.0400,-0.1400,1.1600,-3.4960,23.1760,-35.3590,34.8400
1.4617,0.0440,-0.1690,1.1660,-0.3360,22.3360,-35.9240,34.7900
1.4742,0.0620,-0.1780,1.1660,-1.1760,22.4580,-36.1220,34.7900
1.4809,0.0640,-0.1540,1.1530,0.6260,21.7400,-35.6490,34.8400
1.4930,0.0670,-0.1320,1.1560,1.0530,21.8470,-36.2290,34.8400
1.4999,0.0740,-0.0920,1.1500,-0.2900,21.2820,-36.1370,34.8800
1.5123,0.0710,-0.0900,1.1570,-0.4120,21.7250,-37.4660,34.8400
1.5242,0.0730,-0.0890,1.1580,-0.0310,21.7250,-39.4350,34.8800
1.5315,0.0680,-0.1100,1.1550,-3.0690,22.9920,-38.5800,34.8800
1.5432,0.0550,-0.1080,1.1440,-6.2440,23.0080,-36.3050,34.9300
1.5503,0.0420,-0.1280,1.1410,-8.7020,22.6560,-35.7860,34.8800
1.5624,0.0400,-0.1400,1.1540,-8.5190,21.6640,-35.7250,34.8800
1.5745,0.0210,-0.1470,1.1330,-6.5950,20.3510,-36.0760,34.8400
1.5815,0.0140,-0.1680,1.1380,-3.7400,17.4050,-37.7710,34.8800
1.5936,0.0400,-0.1730,1.1600,-2.0000,15.4810,-38.7630,34.8800
1.6004,0.0620,-0.1780,1.1730,-2.0150,15.9240,-37.8320,34.9300
1.6127,0.0940,-0.1440,1.1880,-4.4730,16.7480,-37.4500,34.8800
1.6181,0.0960,-0.1260,1.1930,-3.8320,19.0840,-37.8780,34.7900
1.6314,0.0850,-0.1170,1.1720,-0.9470,20.2140,-37.4960,34.9300
1.6438,0.0780,-0.1310,1.1650,-2.8850,20.0610,-37.3280,34.7900
1.6508,0.0800,-0.1290,1.1720,-3.8780,20.5650,-36.3660,34.7900
1.6629,0.0690,-0.1230,1.1690,-5.9240,20.9770,-35.6640,34.7400
1.6695,0.0710,-0.0980,1.1660,-6.7020,22.1370,-34.9620,34.8800
1.6818,0.0580,-0.0870,1.1640,-6.4270,22.4890,-36.7940,34.8400
1.6937,0.0440,-0.0750,1.1730,-8.0150,22.3360,-37.0530,34.8400
1.7007,0.0280,-0.0940,1.1690,-7.8170,22.9310,-37.6640,34.7900
1.7128,0.0250,-0.1220,1.1800,-6.9620,21.8170,-38.8240,34.8400
1.7201,0.0330,-0.1480,1.1720,-6.9770,21.1300,-38.9620,34.8400
1.7319,0.0550,-0.1710,1.1920,-5.2210,20.7020,-39.7860,34.8800
1.7440,0.0800,-0.1450,1.2270,-3.9850,20.5190,-39.6950,34.9300
1.7508,0.0800,-0.1290,1.2180,-1.8630,21.4960,-39.9390,34.7400
1.7630,0.0860,-0.1290,1.2350,-4.5800,23.3280,-40.2750,34.7900
1.7697,0.0850,-0.1380,1.2190,-4.9620,25.0230,-39.6640,34.8400
1.7822,0.0740,-0.1470,1.2130,-2.9160,26.8240,-39.9850,34.7900
1.7943,0.0550,-0.1530,1.1950,-4.9770,27.2670,-38.8700,34.8800
1.8013,0.0150,-0.1500,1.1630,-2.9310,26.1370,-40.4890,34.9300
1.8134,-0.0050,-0.1540,1.1590,-1.5420,24.0150,-42.0460,34.8800
1.8202,-0.0000,-0.1280,1.1530,-1.3740,23.1150,-41.6340,34.8800
1.8323,0.0080,-0.1310,1.1670,-2.4580,23.0530,-40.9620,34.8800
1.8444,-0.0010,-0.1420,1.1700,-4.3510,24.2600,-39.4960,34.7900
1.8510,-0.0210,-0.1490,1.1580,-5.5110,23.6180,-38.3820,34.8400
1.8631,-0.0280,-0.1630,1.1380,-3.9240,22.0610,-39.1300,34.7400
1.8696,-0.0220,-0.1870,1.1640,-4.3210,19.7250,-38.9620,34.7900
1.8820,-0.0020,-0.1710,1.1760,-3.6640,18.6560,-38.6560,34.8400
1.8940,-0.0010,-0.1520,1.1740,-2.3210,18.9010,-37.6640,34.8800
1.9007,-0.0030,-0.1630,1.1660,-3.3740,19.4660,-36.0310,34.8800
1.9131,0.0040,-0.1540,1.1750,-3.6640,20.0610,-34.4120,34.8400
1.9196,-0.0020,-0.1650,1.1570,-1.9690,19.9240,-34.3660,34.8400
1.9319,-0.0220,-0.1730,1.1500,-2.3510,18.2440,-34.0760,34.8800
1.9437,-0.0210,-0.1790,1.1520,-1.8470,16.2140,-34.6870,34.8400
1.9507,-0.0120,-0.1460,1.1610,0.9310,15.1600,-35.0230,34.8800
1.9629,0.0020,-0.1520,1.1660,0.0920,14.9770,-34.1530,34.8800
1.9694,0.0030,-0.1570,1.1680,-3.6340,15.1300,-33.0380,34.9300
1.9819,0.0060,-0.1490,1.1690,-1.4500,15.6340,-33.5570,34.7900
1.9940,0.0100,-0.1600,1.1570,-0.3210,15.4500,-32.8700,34.8800
2.0010,0.0090,-0.1690,1.1570,-1.1300,15.1910,-31.8320,34.9300
2.0130,0.0290,-0.1680,1.1630,-0.2750,15.2520,-30.9310,34.8800
2.0197,0.0210,-0.1660,1.1570,-0.3970,14.6720,-30.7180,34.7900
2.0324,0.0280,-0.1500,1.1580,-0.9010,14.3360,-31.4200,34.8400
2.0441,0.0380,-0.1470,1.1590,-0.4270,13.7100,-30.8550,34.8800
2.0514,0.0300,-0.1400,1.1460,-1.2210,13.4960,-30.3210,34.8800
2.0631,0.0330,-0.1380,1.1410,0.6410,12.5950,-30.5650,34.8400
2.0699,0.0470,-0.1360,1.1540,2.1980,12.0150,-32.0460,34.7900
2.0824,0.0630,-0.1310,1.1510,1.9080,11.9390,-31.9540,34.8400
2.0945,0.0960,-0.1220,1.1730,0.8550,12.1370,-32.1370,34.9300
2.1015,0.1090,-0.1070,1.1950,-0.1370,13.2670,-33.2210,34.7900
2.1136,0.1030,-0.0590,1.1890,-0.3360,13.7560,-34.5190,34.7400
2.1208,0.1000,-0.1210,1.1920,3.3590,13.8320,-39.1450,34.8400
2.1329,0.1330,-0.1280,1.2110,0.1680,16.2290,-35.6950,34.7900
2.1396,0.1250,-0.1600,1.2110,-2.5650,18.9920,-35.2520,34.9300
2.1517,0.1050,-0.1350,1.2140,-3.5270,21.1910,-32.7180,34.8400
2.1642,0.0900,-0.1420,1.1900,-3.8020,21.5880,-34.2440,34.8800
2.1711,0.0820,-0.1380,1.2000,-2.4890,20.9310,-35.3130,34.8400
2.1831,0.0830,-0.1560,1.1970,-1.3890,20.5340,-35.4350,34.8800
2.1901,0.1070,-0.1270,1.2020,-0.5500,21.0530,-36.0760,34.8800
2.2020,0.0880,-0.1270,1.1880,0.6410,22.4120,-36.8850,34.8400
2.2144,0.0810,-0.1330,1.1810,1.0990,21.9850,-37.3890,34.7900
2.2212,0.0690,-0.1360,1.1640,0.9770,21.3740,-38.5800,34.8800
2.2334,0.0800,-0.1270,1.1900,1.4200,21.0380,-39.6030,34.9300
2.2406,0.0900,-0.1110,1.2030,-0.6110,22.4730,-38.1680,34.8800
2.2526,0.0770,-0.1180,1.1820,-2.4730,23.9390,-37.4200,34.8800
2.2644,0.0710,-0.1330,1.1720,-0.6260,23.7250,-38.7020,34.8800
2.2718,0.0700,-0.1440,1.1780,-1.2670,23.3130,-39.1300,34.8800
2.2835,0.0700,-0.1180,1.1780,-1.2670,22.8240,-39.6490,34.8400
2.2909,0.0820,-0.0990,1.1780,-1.2370,22.5190,-40.0150,34.8400
2.3024,0.0710,-0.0910,1.1880,-2.0150,23.3280,-40.5190,34.8800
2.3095,0.0680,-0.0870,1.1960,-2.6110,24.6560,-40.0610,34.9300
2.3216,0.0490,-0.1140,1.1850,-2.3050,25.2210,-40.5500,34.7900
2.3339,0.0290,-0.1430,1.1780,-1.6030,24.4120,-41.3890,34.8800
2.3408,0.0280,-0.1600,1.1770,-1.4350,22.7020,-41.8320,34.7400
2.3528,0.0380,-0.1600,1.1930,-2.9470,22.5650,-41.2210,34.9300
2.3598,0.0440,-0.1520,1.2130,-2.8400,22.9010,-40.3050,34.8800
2.3719,0.0340,-0.1540,1.2020,0.2900,24.0610,-41.5270,34.8400
2.3840,0.0150,-0.1490,1.1880,1.4050,23.7710,-41.3890,34.7900
2.3912,0.0130,-0.1470,1.1750,0.0460,22.5340,-40.2900,34.7900
2.4034,0.0040,-0.1430,1.1750,0.4890,22.1220,-40.9620,34.8400
2.4102,0.0190,-0.1590,1.1680,1.5730,21.9690,-40.0610,34.8800
2.4224,0.0160,-0.1640,1.1700,0.3510,21.5730,-38.9920,34.8800
2.4346,0.0280,-0.1560,1.1670,1.7400,21.3280,-37.7710,34.8400
2.4418,0.0310,-0.1350,1.1630,2.7330,20.3510,-38.5800,34.7900
2.4539,0.0310,-0.1190,1.1640,1.6490,19.6180,-37.7710,34.7900
2.4610,0.0230,-0.1240,1.1610,1.4960,19.9080,-37.0530,34.8400
2.4733,0.0370,-0.1090,1.1580,0.5650,19.8630,-38.1530,34.7900
2.4800,0.0520,-0.1320,1.1820,-0.2750,20.3510,-37.8470,34.8800
2.4919,0.0690,-0.1320,1.1870,-0.5650,21.4050,-37.9540,34.8400
2.5043,0.0700,-0.1240,1.1830,-0.9010,22.8850,-37.7860,34.7900
2.5110,0.0420,-0.1250,1.1810,0.2900,24.1830,-38.6560,34.8800
2.5233,0.0280,-0.1250,1.1610,-1.0230,24.0150,-38.7630,34.8400
2.5303,0.0230,-0.1220,1.1690,-2.7480,23.6030,-38.0150,34.7900
2.5423,0.0100,-0.1280,1.1880,-1.4500,22.1530,-37.4660,34.8800
2.5547,0.0050,-0.1380,1.1460,-1.8020,23.6340,-38.1980,34.8400
2.5614,-0.0060,-0.1350,1.1450,-3.0990,21.7400,-38.3970,34.7900
2.5735,-0.0350,-0.1410,1.1320,-2.7020,17.8170,-37.2060,34.8400
2.5804,-0.0160,-0.1500,1.1490,0.4580,15.2980,-38.9770,34.7400
2.5923,0.0090,-0.1300,1.1770,-1.6340,15.3740,-37.8630,34.8800
2.6046,0.0350,-0.1120,1.1870,-1.1600,17.0530,-36.5340,34.8400
2.6114,0.0370,-0.1060,1.1790,-0.9920,18.5190,-35.3590,34.8400
2.6235,0.0290,-0.1370,1.1570,-0.5040,19.8020,-36.8400,34.7900
2.6305,0.0240,-0.1500,1.1600,1.9850,17.3130,-37.7860,34.8400
2.6427,0.0230,-0.1450,1.1760,0.4270,16.4890,-36.9310,34.7400
2.6499,0.0380,-0.1230,1.1790,-0.5500,16.9010,-35.4500,34.8800
2.6615,0.0470,-0.1140,1.1770,-1.4810,17.9850,-35.0080,34.8400
2.6738,0.0380,-0.1050,1.1790,-2.6110,18.9620,-35.4500,34.7900
2.6807,0.0230,-0.1230,1.1520,-1.7250,18.8850,-35.9080,34.7900
2.6928,0.0090,-0.1340,1.1430,-3.2980,17.2210,-35.9540,34.8400
2.6998,0.0030,-0.1250,1.1390,0.1530,16.0460,-36.8700,34.7900
2.7120,0.0280,-0.1310,1.1610,-1.9080,16.5340,-36.4120,34.8800
2.7239,0.0540,-0.1220,1.1580,-4.1530,16.3510,-35.2060,34.8400
2.7310,0.0540,-0.1110,1.1580,-2.1830,15.5730,-35.8470,34.7900
2.7431,0.0460,-0.0940,1.1570,-1.4200,17.3280,-37.3280,34.8800
2.7498,0.0510,-0.0850,1.1640,-2.3820,17.2820,-37.1450,34.8400
2.7621,0.0610,-0.1000,1.1610,-2.5190,18.6410,-37.4050,34.8800
2.7742,0.0490,-0.1130,1.1580,-3.2670,19.5730,-37.5570,34.8800
2.7813,0.0450,-0.1440,1.1560,-4.0760,19.6030,-37.6950,34.8400
2.7932,0.0390,-0.1610,1.1400,-4.6560,19.4200,-38.7790,34.8800
2.8003,0.0250,-0.1150,1.1590,-2.6110,17.1150,-37.4810,34.9300
2.8122,0.0410,-0.1420,1.1510,-3.6790,15.6790,-35.8780,34.7900
2.8243,0.0420,-0.1130,1.1540,-4.4270,15.7710,-37.0530,34.8800
2.8315,0.0420,-0.0780,1.1690,-4.6110,15.4200,-35.0080,34.7400
2.8432,0.0440,-0.0830,1.1520,-1.8780,15.0990,-39.9240,34.8400
2.8504,0.0470,-0.0900,1.1490,-0.9160,14.2290,-40.2140,34.8800
2.8621,0.0280,-0.1230,1.1390,-1.0690,12.4580,-41.0990,34.9300
2.8747,0.0570,-0.1220,1.1470,-0.8850,10.9620,-41.8020,34.8800
2.8815,0.0890,-0.1230,1.1730,-2.8700,12.2290,-38.6260,34.7900
2.8935,0.0920,-0.1110,1.1680,-6.1070,14.3970,-36.6870,34.8400
2.9004,0.0710,-0.0880,1.1630,-7.1760,16.7630,-36.7630,34.8800
2.9125,0.0540,-0.0980,1.1430,-8.1530,17.5110,-37.9540,34.8800
2.9184,0.0520,-0.1220,1.1430,-9.0530,17.7100,-38.3360,34.8400
2.9318,0.0580,-0.1450,1.1480,-10.4120,18.1980,-37.9390,34.8800
2.9435,0.0560,-0.1740,1.1570,-9.9390,18.1370,-37.8170,34.8800
2.9507,0.0410,-0.1690,1.1550,-8.7020,15.6950,-37.9240,34.8400
2.9626,0.0410,-0.1610,1.1570,-8.1680,15.8020,-38.2290,34.7900
2.9695,0.0460,-0.1530,1.1640,-5.9540,14.2440,-39.0530,34.7900
2.9814,0.0500,-0.1510,1.1630,-3.9540,13.4960,-39.4810,34.8400
2.9935,0.0520,-0.1620,1.1670,-1.8780,13.2520,-39.3440,34.7900
3.0003,0.0520,-0.1670,1.1700,-2.6260,12.6870,-38.1530,34.7400
3.0127,0.0510,-0.1440,1.1580,-4.0150,12.4120,-37.4660,34.8400
3.0193,0.0690,-0.1180,1.1680,-3.8020,12.2140,-37.1150,34.6900
3.0317,0.0760,-0.1010,1.1760,-3.9080,12.6720,-38.0310,34.8400
3.0440,0.0900,-0.1090,1.1950,-5.1300,12.0920,-38.5040,34.8400
3.0505,0.0940,-0.1230,1.1820,-6.0000,15.1300,-38.7020,34.8800
3.0630,0.0920,-0.1360,1.1880,-3.2670,14.0920,-40.0760,34.9300
3.0696,0.0890,-0.1820,1.1670,-5.5420,14.0610,-41.7100,34.8400
3.0819,0.0840,-0.1980,1.1950,-5.1300,14.6260,-40.6110,34.8800
3.0939,0.0810,-0.1480,1.2110,-8.1220,15.4960,-37.4660,34.8400
3.1008,0.0500,-0.1060,1.1780,-11.1150,13.8170,-40.3820,34.8400
3.1131,0.0760,-0.0870,1.2040,-10.9010,14.2140,-41.4350,34.8800
3.1197,0.0590,-0.1270,1.2180,-3.3440,16.9160,-41.8780,34.8400
3.1320,0.0620,-0.1680,1.2110,-5.3440,16.8090,-42.9770,34.8800
3.1440,0.0280,-0.1960,1.1860,-2.8090,15.9240,-41.1300,34.7900
3.1510,0.0390,-0.2110,1.1740,0.8550,13.3280,-42.5040,34.9300
3.1633,0.0650,-0.2430,1.1890,3.1300,11.4350,-41.8020,34.7900
3.1701,0.0780,-0.2400,1.1940,2.3050,11.6340,-40.8400,34.8800
3.1823,0.1040,-0.1570,1.2070,-0.9470,13.6340,-35.0990,34.8400
3.1944,0.0900,-0.1510,1.1710,-1.4500,15.4660,-33.9080,34.8800
3.2013,0.0930,-0.1340,1.1460,-2.1070,15.6790,-34.8700,34.8400
3.2136,0.0910,-0.1490,1.1520,-0.0460,15.2370,-37.0990,34.8400
3.2206,0.0960,-0.1450,1.1440,1.2520,14.5190,-37.9690,34.7900
3.2327,0.0970,-0.1500,1.1190,1.7860,13.0380,-38.3510,34.8400
3.2397,0.1130,-0.1200,1.1410,0.0150,12.2140,-38.6110,34.8800
3.2518,0.1120,-0.0930,1.1440,1.3440,12.2140,-39.0990,34.7900
3.2641,0.1290,-0.0900,1.1370,0.7630,13.6950,-39.5880,34.8400
3.2711,0.1280,-0.1240,1.1450,0.1070,15.7860,-39.0080,34.8400
3.2837,0.1240,-0.1280,1.1390,-2.9160,15.9540,-38.6110,34.8800
3.2904,0.1060,-0.1230,1.1120,-2.9160,15.5730,-39.0690,34.9300
3.3022,0.1120,-0.1280,1.1270,-5.0990,14.6720,-40.3210,34.8800
3.3143,0.1200,-0.1170,1.1330,-7.3440,14.6870,-39.4200,34.8800
3.3215,0.1210,-0.0810,1.1370,-11.4350,15.1300,-39.3590,34.9300
3.3334,0.1100,-0.0430,1.1330,-9.7100,15.9850,-41.2060,34.7900
3.3402,0.0950,-0.0460,1.1150,-7.1150,16.1220,-44.9770,34.7900
3.3523,0.0980,-0.0900,1.1310,-7.8470,16.2750,-45.5420,34.7400
3.3646,0.1130,-0.1330,1.1480,-7.0990,17.2820,-44.3210,34.7900
3.3712,0.1300,-0.2060,1.1910,-8.3970,17.4200,-43.1300,34.9300
3.3835,0.1410,-0.2430,1.2020,-5.5730,16.3660,-43.0690,34.8400
3.3904,0.1510,-0.2660,1.2090,-7.0380,15.8020,-43.2520,34.8800
3.4026,0.1580,-0.2450,1.2110,-6.7180,16.0150,-43.4960,34.7400
3.4144,0.1670,-0.2370,1.2020,-5.1910,16.8400,-42.5040,34.8400
3.4217,0.1810,-0.2030,1.2020,-3.6640,16.8550,-42.5190,34.8800
3.4335,0.1880,-0.1650,1.2120,-3.2820,18.2440,-43.7250,34.8400
3.4408,0.1690,-0.1410,1.1980,0.1680,20.2290,-45.8020,34.9300
3.4528,0.1800,-0.1470,1.1800,-0.2140,21.4200,-45.9690,34.8800
3.4595,0.1660,-0.1530,1.1790,-3.8170,22.0760,-45.1450,34.9300
3.4720,0.1510,-0.1540,1.1750,-1.1910,23.0230,-45.9390,34.8400
3.4836,0.1580,-0.1480,1.1660,-0.1070,20.8550,-46.5040,34.7900
3.4909,0.1650,-0.1830,1.1590,-4.4730,21.7710,-45.5880,34.8400
3.5027,0.1650,-0.1920,1.1530,-5.7400,24.0150,-46.6720,34.7900
3.5098,0.1600,-0.1760,1.1550,-2.7180,22.4430,-46.2440,34.8800
3.5219,0.1730,-0.1670,1.1470,-4.7790,21.4500,-47.2060,34.8400
3.5340,0.1770,-0.1390,1.1540,-5.0380,23.9080,-48.5800,34.7900
3.5409,0.1810,-0.1460,1.1560,-3.3740,23.9390,-49.4350,34.9800
3.5530,0.1960,-0.1600,1.1790,-2.5340,25.8020,-50.5650,34.8400
3.5597,0.1770,-0.1800,1.1750,-1.8780,26.5340,-50.9620,34.8800
3.5722,0.1600,-0.1980,1.1550,-1.7560,27.9540,-51.4660,34.8800
3.5842,0.1580,-0.1880,1.1610,-3.5110,26.9160,-51.0990,34.7400
3.5913,0.1580,-0.1620,1.1710,-1.6180,26.9310,-51.9690,34.8800
3.6035,0.1550,-0.1500,1.1730,-1.6030,27.4810,-53.1150,34.8400
3.6126,0.1610,-0.1500,1.1690,-1.5270,28.9310,-54.1070,34.7900
3.6222,0.1460,-0.1540,1.1670,-2.3510,29.3280,-54.2140,34.8800
3.6343,0.1300,-0.1480,1.1560,-4.6560,29.8630,-54.8400,34.8400
3.6417,0.1330,-0.1150,1.1700,-4.0150,29.5570,-55.7400,34.8400
3.6532,0.1280,-0.1280,1.1690,-6.5190,30.0920,-54.5190,34.8800
3.6603,0.1280,-0.1460,1.1830,-6.2600,30.8850,-54.8850,34.9300
3.6724,0.1100,-0.1830,1.1830,-6.3820,30.8400,-54.9770,34.8800
3.6844,0.0970,-0.1970,1.1800,-5.1450,29.5110,-55.5570,34.8800
3.6913,0.0950,-0.1940,1.1740,-2.2600,27.9690,-57.0840,34.9300
3.7037,0.1080,-0.2090,1.1810,-1.4960,25.9390,-56.3820,34.8400
3.7102,0.1220,-0.2060,1.1960,-0.6870,26.6720,-55.2820,34.8800
3.7226,0.1220,-0.1960,1.1890,-2.6560,26.4430,-55.4350,34.8400
3.7280,0.1050,-0.1520,1.1670,1.2980,26.1070,-57.1600,34.8800
3.7417,0.1000,-0.1380,1.1470,2.5500,24.6410,-59.0990,34.9800
3.7536,0.1290,-0.1580,1.1670,3.9850,23.6950,-60.2750,34.9300
3.7608,0.1480,-0.1470,1.1960,2.8240,24.7480,-59.1760,34.7900
3.7732,0.1500,-0.1320,1.1870,1.1760,25.6490,-58.6560,34.7900
3.7802,0.1330,-0.1580,1.1800,0.6110,26.1370,-59.3590,34.9300
3.7924,0.1360,-0.1560,1.1900,0.1070,26.4730,-60.3210,34.7900
3.8046,0.1330,-0.1840,1.1770,3.1300,27.4660,-60.5650,34.8800
3.8115,0.1450,-0.2090,1.1610,3.4660,27.1910,-60.4730,34.8400
3.8236,0.1510,-0.2100,1.1870,1.6340,26.0310,-59.6640,34.8800
3.8305,0.1460,-0.1830,1.1870,1.8020,25.5730,-59.3440,34.8800
3.8429,0.1350,-0.1410,1.1750,3.2980,25.5270,-59.9390,34.8400
3.8500,0.1290,-0.1270,1.1750,1.7400,25.1600,-61.0690,34.8800
3.8622,0.1420,-0.1150,1.1770,2.2750,25.5880,-62.1070,34.8400
3.8742,0.1440,-0.1330,1.1930,2.8700,26.5340,-63.0380,34.8400
3.8813,0.1380,-0.1550,1.1960,4.3050,28.7330,-63.9850,34.7900
3.8934,0.1330,-0.1670,1.1780,3.2980,27.8930,-63.5730,34.8400
3.9003,0.1120,-0.1690,1.1540,1.7400,27.4660,-64.8700,34.9300
3.9126,0.1100,-0.1410,1.1590,7.3280,26.4730,-66.9920,34.8800
3.9200,0.1330,-0.1720,1.1550,7.5570,25.2980,-68.3210,34.8400
3.9320,0.1270,-0.1540,1.1700,4.1530,24.8090,-67.8630,34.8800
3.9440,0.1290,-0.1460,1.1460,4.2900,24.5650,-66.5650,34.7900
3.9509,0.1150,-0.1500,1.1270,4.1530,24.3510,-66.6720,34.9300
3.9632,0.1180,-0.1520,1.1260,1.2820,22.5800,-66.8240,34.9800
3.9703,0.1040,-0.1350,1.1010,-0.5340,22.2290,-67.0230,34.8800
3.9824,0.0850,-0.1280,1.1310,-0.8240,24.9770,-64.9470,34.8400
3.9942,0.1170,-0.1080,1.1410,2.2140,24.1980,-68.1830,34.8800
